SensorId, TimeStamp (s), FrameNumber, AccX (g), AccY (g), AccZ (g), GyroX (deg/s), GyroY (deg/s), GyroZ (deg/s), MagX (uT), MagY (uT), MagZ (uT), EulerX (deg), EulerY (deg), EulerZ (deg), QuatW, QuatX, QuatY, QuatZ, LinAccX (g), LinAccY (g), LinAccZ (g), Pressure (kPa), Altitude (m), Temperature (degC), HeaveMotion (m)
1, -0.0000, 0, -0.03149847, -0.93066412, -0.35222471, 1.15556252, -0.27797925, 0.57109880, -3.39082146, -22.36188316, -76.46886444, 69.34695435, -1.79484773, -65.20278931, 0.69754434, -0.47226381, 0.31733131, 0.43554518, 0.00017760, -0.00461000, -0.00031072, 0.00000000, 0.00000000, 0.00000000, 0.00000000
1, 0.0025, 1, -0.03283141, -0.93115687, -0.35259610, 1.15613914, -0.34721676, 0.57015806, -3.39082146, -22.36188316, -76.46886444, 69.34986115, -1.79648960, -65.20310211, 0.69753546, -0.47227415, 0.31735346, 0.43553206, 0.00148190, -0.00413430, 0.00010830, 0.00000000, 0.00000000, 0.00000000, 0.00000000
1, 0.0050, 2, -0.03633979, -0.93265510, -0.35212308, 1.30267930, -0.69096309, 0.49507779, -2.16311026, -21.63110161, -75.76731873, 69.35314941, -1.79825771, -65.20426941, 0.69752198, -0.47228399, 0.31738144, 0.43552262, 0.00495943, -0.00265539, -0.00031063, 0.00000000, 0.00000000, 0.00000000, 0.00000000
1, 0.0075, 3, -0.03922834, -0.93553901, -0.34910637, 1.23090398, -0.69273311, 0.56522846, -2.16311026, -21.63110161, -75.76731873, 69.35625458, -1.80018830, -65.20539093, 0.69750988, -0.47229224, 0.31740949, 0.43551263, 0.00781431, 0.00021029, -0.00327617, 0.00000000, 0.00000000, 0.00000000, 0.00000000
1, 0.0100, 4, -0.04189635, -0.93639445, -0.35033599, 1.23022091, -0.62239707, 0.49624437, -2.16311026, -21.63110161, -75.76731873, 69.35937500, -1.80189669, -65.20642090, 0.69749761, -0.47230163, 0.31743574, 0.43550298, 0.01045252, 0.00104749, -0.00199547, 0.00000000, 0.00000000, 0.00000000, 0.00000000
1, 0.0125, 5, -0.04443240, -0.93862563, -0.34987617, 1.37571418, -0.82876682, 0.49297044, -2.16311026, -21.63110161, -75.76731873, 69.36285400, -1.80378270, -65.20792389, 0.69748241, -0.47231126, 0.31746653, 0.43549448, 0.01295567, 0.00325817, -0.00239807, 0.00000000, 0.00000000, 0.00000000, 0.00000000
1, 0.0150, 6, -0.04625321, -0.93874484, -0.35072964, 1.37366450, -0.61775857, 0.28601813, -2.16311026, -21.63110161, -75.76731873, 69.36631775, -1.80499721, -65.20910645, 0.69746673, -0.47232431, 0.31749192, 0.43548697, 0.01475529, 0.00335676, -0.00148770, 0.00000000, 0.00000000, 0.00000000, 0.00000000
1, 0.0175, 7, -0.04782775, -0.93875736, -0.35036004, 1.29983997, -0.40852034, 0.14921656, -2.74773455, -21.42648315, -76.43963623, 69.36959839, -1.80570436, -65.20993805, 0.69745195, -0.47233918, 0.31751201, 0.43547991, 0.01631749, 0.00334948, -0.00180376, 0.00000000, 0.00000000, 0.00000000, 0.00000000
1, 0.0200, 8, -0.04709571, -0.93950015, -0.34976190, 1.22706187, -0.33665866, -0.05939138, -2.74773455, -21.42648315, -76.43963623, 69.38392639, -1.85371971, -65.21241760, 0.69750726, -0.47223067, 0.31786481, 0.43525144, 0.01474785, 0.00402927, -0.00215846, 0.00000000, 0.00000000, 0.00000000, 0.00000000
1, 0.0225, 9, -0.04430642, -0.93985587, -0.34977305, 1.01099098, -0.33427894, -0.33841324, -2.74773455, -21.42648315, -76.43963623, 69.38648987, -1.85322261, -65.21350098, 0.69749129, -0.47224522, 0.31787601, 0.43525302, 0.01196728, 0.00436908, -0.00210550, 0.00000000, 0.00000000, 0.00000000, 0.00000000
1, 0.0250, 10, -0.04357874, -0.93900597, -0.34878394, 0.86575484, -0.19385119, -0.54585457, -2.74773455, -21.42648315, -76.43963623, 69.38868713, -1.85211360, -65.21443939, 0.69747585, -0.47226039, 0.31788158, 0.43525738, 0.01125890, 0.00350499, -0.00305903, 0.00000000, 0.00000000, 0.00000000, 0.00000000
1, 0.0275, 11, -0.04164107, -0.93693012, -0.34716758, 0.86658847, -0.32903072, -0.75751060, -2.74773455, -21.42648315, -76.43963623, 69.39089203, -1.85063076, -65.21588135, 0.69745743, -0.47227567, 0.31788701, 0.43526629, 0.00934710, 0.00141484, -0.00463960, 0.00000000, 0.00000000, 0.00000000, 0.00000000
1, 0.0300, 12, -0.03727859, -0.93617749, -0.34679842, 0.64737707, 0.08547876, -0.82111341, -2.33849740, -21.60187149, -76.49810028, 69.39253235, -1.84863043, -65.21640015, 0.69744354, -0.47229204, 0.31788337, 0.43527341, 0.00501951, 0.00065112, -0.00498241, 0.00000000, 0.00000000, 0.00000000, 0.00000000
1, 0.0325, 13, -0.03485771, -0.93530411, -0.34691218, 0.57297581, 0.36395457, -0.95697433, -2.33849740, -21.60187149, -76.49810028, 69.39396667, -1.84607100, -65.21638489, 0.69743109, -0.47231087, 0.31787342, 0.43528023, 0.00264328, -0.00023252, -0.00484577, 0.00000000, 0.00000000, 0.00000000, 0.00000000
1, 0.0350, 14, -0.03013644, -0.93125904, -0.34453818, 0.64449376, 0.43166658, -0.81640971, -2.33849740, -21.60187149, -76.49810028, 69.39556885, -1.84377813, -65.21608734, 0.69741970, -0.47233045, 0.31786454, 0.43528375, -0.00203800, -0.00428850, -0.00719404, 0.00000000, 0.00000000, 0.00000000, 0.00000000
1, 0.0375, 15, -0.02565658, -0.93036902, -0.34514472, 0.57135230, 0.57056880, -0.88422716, -2.33849740, -21.60187149, -76.49810028, 69.39698029, -1.84120560, -65.21553802, 0.69740933, -0.47235072, 0.31785217, 0.43528736, -0.00647298, -0.00518858, -0.00656494, 0.00000000, 0.00000000, 0.00000000, 0.00000000
1, 0.0400, 16, -0.02019585, -0.93012565, -0.34319702, 0.57145888, 0.56947029, -0.81430233, -2.33849740, -21.60187149, -76.49810028, 69.39839172, -1.83879828, -65.21492004, 0.69739962, -0.47237045, 0.31784055, 0.43528992, -0.01189171, -0.00544184, -0.00849006, 0.00000000, 0.00000000, 0.00000000, 0.00000000
1, 0.0425, 17, -0.01583602, -0.92730272, -0.34145197, 0.42733210, 0.63516796, -0.67306018, -2.71850324, -21.30955887, -75.88424683, 69.39942932, -1.83666289, -65.21402740, 0.69739324, -0.47238764, 0.31782800, 0.43529066, -0.01621429, -0.00827229, -0.01021859, 0.00000000, 0.00000000, 0.00000000, 0.00000000
1, 0.0450, 18, -0.01111505, -0.92580050, -0.34180522, 0.35461679, 0.76967597, -0.46117833, -2.71850324, -21.30955887, -75.88424683, 69.40026093, -1.83491135, -65.21262360, 0.69739062, -0.47240353, 0.31781492, 0.43528730, -0.02090471, -0.00978053, -0.00985202, 0.00000000, 0.00000000, 0.00000000, 0.00000000
1, 0.0475, 19, -0.00893233, -0.92506677, -0.34082088, 0.50089967, 0.49187157, -0.32554334, -2.71850324, -21.30955887, -75.88424683, 69.40150452, -1.83371413, -65.21176910, 0.69738573, -0.47241810, 0.31780884, 0.43528372, -0.02306654, -0.01052255, -0.01081655, 0.00000000, 0.00000000, 0.00000000, 0.00000000
1, 0.0500, 20, -0.00625957, -0.92519981, -0.33923984, 0.57619739, 0.14086264, 0.01915131, -2.71850324, -21.30955887, -75.88424683, 69.40293884, -1.83363533, -65.21142578, 0.69738090, -0.47242808, 0.31781238, 0.43527797, -0.02573793, -0.01039833, -0.01237416, 0.00000000, 0.00000000, 0.00000000, 0.00000000
1, 0.0525, 21, -0.00516648, -0.92520344, -0.33863112, 0.64976496, -0.00243363, 0.36666822, -2.71850324, -21.30955887, -75.88424683, 69.40454865, -1.83449638, -65.21110535, 0.69737768, -0.47243541, 0.31782237, 0.43526790, -0.02684604, -0.01040411, -0.01295635, 0.00000000, 0.00000000, 0.00000000, 0.00000000
1, 0.0550, 22, -0.00396169, -0.92298716, -0.33847749, 0.72495610, -0.35234404, 0.64143813, -3.15697169, -22.27418900, -76.17655945, 69.40637207, -1.83630550, -65.21136475, 0.69737387, -0.47243866, 0.31784123, 0.43525675, -0.02808240, -0.01263053, -0.01307986, 0.00000000, 0.00000000, 0.00000000, 0.00000000
1, 0.0575, 23, -0.00494213, -0.92246354, -0.34103361, 1.01553500, -0.63429809, 1.12624550, -3.15697169, -22.27418900, -76.17655945, 69.40892792, -1.83950031, -65.21186066, 0.69736964, -0.47244027, 0.31787214, 0.43523911, -0.02715768, -0.01316822, -0.01048139, 0.00000000, 0.00000000, 0.00000000, 0.00000000
1, 0.0600, 24, -0.01039037, -0.92469615, -0.34142321, 1.16376102, -1.12201226, 1.39890802, -3.15697169, -22.27418900, -76.17655945, 69.41188049, -1.84376132, -65.21326447, 0.69736314, -0.47243762, 0.31791469, 0.43522131, -0.02178377, -0.01095158, -0.01004267, 0.00000000, 0.00000000, 0.00000000, 0.00000000
1, 0.0625, 25, -0.01171249, -0.92777681, -0.34134549, 1.23905861, -1.47302115, 1.74360251, -3.15697169, -22.27418900, -76.17655945, 69.41503906, -1.84913754, -65.21517181, 0.69735676, -0.47243041, 0.31796685, 0.43520138, -0.02055543, -0.00788737, -0.01006779, 0.00000000, 0.00000000, 0.00000000, 0.00000000
1, 0.0650, 26, -0.01171249, -0.92777681, -0.34134549, 1.23905861, -1.47302115, 1.74360251, -3.15697169, -22.27418900, -76.17655945, 69.41819763, -1.85451591, -65.21708679, 0.69735032, -0.47242314, 0.31801897, 0.43518138, -0.02064925, -0.00790393, -0.01001513, 0.00000000, 0.00000000, 0.00000000, 0.00000000
1, 0.0675, 27, -0.01981970, -0.93223423, -0.34176371, 1.38777351, -1.90248299, 2.71645427, -2.92312193, -21.89418221, -76.49810028, 69.42173004, -1.86254907, -65.21914673, 0.69734865, -0.47240734, 0.31808910, 0.43515003, -0.01268217, -0.00346404, -0.00953761, 0.00000000, 0.00000000, 0.00000000, 0.00000000
1, 0.0700, 28, -0.01981970, -0.93223423, -0.34176371, 1.38777351, -1.90248299, 2.71645427, -2.92312193, -21.89418221, -76.49810028, 69.43192291, -1.85962057, -65.22035980, 0.69729447, -0.47247753, 0.31811526, 0.43514156, -0.01263109, -0.00352794, -0.00937170, 0.00000000, 0.00000000, 0.00000000, 0.00000000
1, 0.0725, 29, -0.03011389, -0.93777150, -0.34476012, 1.24270630, -1.70050728, 2.99942756, -2.92312193, -21.89418221, -76.49810028, 69.43507385, -1.86813545, -65.22171021, 0.69729835, -0.47245947, 0.31818384, 0.43510485, -0.00248544, 0.00199455, -0.00632218, 0.00000000, 0.00000000, 0.00000000, 0.00000000
1, 0.0750, 30, -0.03506734, -0.94185942, -0.34420156, 0.95323706, -1.49328339, 2.86330366, -2.92312193, -21.89418221, -76.49810028, 69.43749237, -1.87614965, -65.22269440, 0.69730532, -0.47243991, 0.31824514, 0.43507007, 0.00232822, 0.00607205, -0.00683958, 0.00000000, 0.00000000, 0.00000000, 0.00000000
1, 0.0775, 31, -0.03930906, -0.94224614, -0.34432098, 0.73564911, -1.28538799, 2.72695351, -2.92312193, -21.89418221, -76.49810028, 69.43935394, -1.88365865, -65.22331238, 0.69731468, -0.47242001, 0.31829977, 0.43503672, 0.00643895, 0.00645131, -0.00668830, 0.00000000, 0.00000000, 0.00000000, 0.00000000
1, 0.0800, 32, -0.04269619, -0.94434971, -0.34446847, 0.66402441, -1.35200143, 2.51646423, -2.89389062, -21.60187149, -76.81964111, 69.44104004, -1.89073336, -65.22425842, 0.69732231, -0.47239980, 0.31835255, 0.43500775, 0.00970267, 0.00854832, -0.00651172, 0.00000000, 0.00000000, 0.00000000, 0.00000000
1, 0.0825, 33, -0.04535736, -0.94535410, -0.34386739, 0.22942537, -1.00544822, 2.24282384, -2.89389062, -21.60187149, -76.81964111, 69.44163513, -1.89686692, -65.22464752, 0.69733423, -0.47237816, 0.31839314, 0.43498239, 0.01225685, 0.00955236, -0.00710198, 0.00000000, 0.00000000, 0.00000000, 0.00000000
1, 0.0850, 34, -0.04777259, -0.94806772, -0.34402618, -0.06119744, -0.65974915, 2.10858107, -2.89389062, -21.60187149, -76.81964111, 69.44147491, -1.90238357, -65.22434235, 0.69735032, -0.47235635, 0.31842434, 0.43495753, 0.01457585, 0.01227004, -0.00694472, 0.00000000, 0.00000000, 0.00000000, 0.00000000
1, 0.0875, 35, -0.04946831, -0.94892907, -0.34452471, -0.35171372, -0.31514874, 2.04426360, -2.89389062, -21.60187149, -76.81964111, 69.44055939, -1.90744603, -65.22328186, 0.69737113, -0.47233379, 0.31844687, 0.43493211, 0.01618326, 0.01313961, -0.00646010, 0.00000000, 0.00000000, 0.00000000, 0.00000000
1, 0.0900, 36, -0.05032367, -0.94866282, -0.34622964, -0.56904465, -0.17319533, 1.69719815, -2.89389062, -21.60187149, -76.81964111, 69.43909454, -1.91157019, -65.22219849, 0.69739187, -0.47231168, 0.31846160, 0.43491203, 0.01696668, 0.01288462, -0.00477812, 0.00000000, 0.00000000, 0.00000000, 0.00000000
1, 0.0925, 37, -0.05152636, -0.95028204, -0.34515220, -0.85998696, 0.17579924, 1.35318112, -3.01081562, -22.12803268, -77.22888184, 69.43689728, -1.91458058, -65.22059631, 0.69741476, -0.47229087, 0.31846470, 0.43489560, 0.01811689, 0.01451904, -0.00589088, 0.00000000, 0.00000000, 0.00000000, 0.00000000
1, 0.0950, 38, -0.05164708, -0.95161718, -0.34639436, -0.93366122, 0.32019401, 0.93573934, -3.01081562, -22.12803268, -77.22888184, 69.43450928, -1.91648710, -65.21903229, 0.69743550, -0.47227326, 0.31846064, 0.43488461, 0.01820432, 0.01586980, -0.00468734, 0.00000000, 0.00000000, 0.00000000, 0.00000000
1, 0.0975, 39, -0.05153056, -0.95171875, -0.34786251, -0.79100728, 0.39626712, 0.58660418, -3.01081562, -22.12803268, -77.22888184, 69.43247986, -1.91751075, -65.21758270, 0.69745195, -0.47226089, 0.31845313, 0.43487710, 0.01806995, 0.01598424, -0.00325206, 0.00000000, 0.00000000, 0.00000000, 0.00000000
1, 0.1000, 40, -0.04961005, -0.94860387, -0.35014051, -0.64525717, 0.12395530, 0.37261495, -3.01081562, -22.12803268, -77.22888184, 69.43084717, -1.91827619, -65.21697235, 0.69746298, -0.47224966, 0.31844899, 0.43487462, 0.01613608, 0.01287985, -0.00100052, 0.00000000, 0.00000000, 0.00000000, 0.00000000
1, 0.1025, 41, -0.04634535, -0.94770741, -0.35159984, -0.42935532, 0.06002766, 0.16122212, -3.01081562, -22.12803268, -77.22888184, 69.42977142, -1.91860080, -65.21669006, 0.69746935, -0.47224256, 0.31844565, 0.43487453, 0.01286571, 0.01199013, 0.00044116, 0.00000000, 0.00000000, 0.00000000, 0.00000000
1, 0.1050, 42, -0.04356728, -0.94571567, -0.35243043, -0.35689703, -0.00853844, 0.16005552, -3.01081562, -22.12803268, -77.22888184, 69.42887878, -1.91898346, -65.21656799, 0.69747448, -0.47223595, 0.31844404, 0.43487465, 0.01008098, 0.01000416, 0.00125721, 0.00000000, 0.00000000, 0.00000000, 0.00000000
1, 0.1075, 43, -0.03787784, -0.94432497, -0.35327619, -0.21240667, -0.14127657, -0.12197705, -2.83542824, -22.06957054, -76.79041290, 69.42835236, -1.91882253, -65.21700287, 0.69747460, -0.47223222, 0.31844291, 0.43487945, 0.00439434, 0.00861657, 0.00209442, 0.00000000, 0.00000000, 0.00000000, 0.00000000
1, 0.1100, 44, -0.03922068, -0.94344479, -0.35509291, -0.28360504, -0.21228409, -0.05276711, -2.83542824, -22.06957054, -76.79041290, 69.42765808, -1.91888762, -65.21754456, 0.69747555, -0.47222623, 0.31844291, 0.43488440, 0.00573604, 0.00774068, 0.00389987, 0.00000000, 0.00000000, 0.00000000, 0.00000000
1, 0.1125, 45, -0.03523257, -0.94168103, -0.35678485, -0.35433328, -0.35143065, -0.05442276, -2.83542824, -22.06957054, -76.79041290, 69.42680359, -1.91906869, -65.21842194, 0.69747621, -0.47221789, 0.31844434, 0.43489131, 0.00174477, 0.00598228, 0.00557792, 0.00000000, 0.00000000, 0.00000000, 0.00000000
1, 0.1150, 46, -0.03245571, -0.94113821, -0.35947055, -0.34982648, -0.90423262, -0.13187358, -2.83542824, -22.06957054, -76.79041290, 69.42601013, -1.91955578, -65.22064972, 0.69747227, -0.47220489, 0.31845343, 0.43490505, -0.00104059, 0.00544459, 0.00825062, 0.00000000, 0.00000000, 0.00000000, 0.00000000
1, 0.1175, 47, -0.03077969, -0.93946999, -0.36384758, -0.13155542, -1.18246412, 0.07346042, -2.83542824, -22.06957054, -76.79041290, 69.42576599, -1.92076528, -65.22335815, 0.69746614, -0.47219118, 0.31847093, 0.43491703, -0.00273770, 0.00377840, 0.01262400, 0.00000000, 0.00000000, 0.00000000, 0.00000000
1, 0.1200, 48, -0.03019125, -0.93697244, -0.36637667, 0.30340725, -1.59605789, 0.20631053, -3.12774038, -22.15726280, -77.02426147, 69.39403534, -1.91417718, -65.22843933, 0.69756061, -0.47200987, 0.31833193, 0.43506414, -0.00321122, 0.00147194, 0.01463360, 0.00000000, 0.00000000, 0.00000000, 0.00000000
1, 0.1225, 49, -0.03091814, -0.93661410, -0.36588091, 0.73595679, -1.73160267, 0.27299878, -3.12774038, -22.15726280, -77.02426147, 69.39601135, -1.91633856, -65.23224640, 0.69754356, -0.47200274, 0.31836808, 0.43507269, -0.00252203, 0.00110275, 0.01417050, 0.00000000, 0.00000000, 0.00000000, 0.00000000
1, 0.1250, 50, -0.03092939, -0.93378192, -0.36620411, 1.02495623, -1.87068760, 0.47998846, -3.12774038, -22.15726280, -77.02426147, 69.39870453, -1.91910815, -65.23621368, 0.69752455, -0.47199723, 0.31841120, 0.43507752, -0.00255909, -0.00174451, 0.01453826, 0.00000000, 0.00000000, 0.00000000, 0.00000000
1, 0.1275, 51, -0.03334171, -0.93493247, -0.36389506, 1.38573062, -2.00800252, 0.61682755, -3.12774038, -22.15726280, -77.02426147, 69.40229797, -1.92231691, -65.24036407, 0.69750220, -0.47199497, 0.31846124, 0.43507919, -0.00020274, -0.00061429, 0.01228863, 0.00000000, 0.00000000, 0.00000000, 0.00000000
1, 0.1300, 52, -0.03551930, -0.93580812, -0.36353740, 1.53227043, -2.35174894, 0.54174715, -3.12774038, -22.15726280, -77.02426147, 69.40631104, -1.92565167, -65.24539948, 0.69747519, -0.47199219, 0.31851715, 0.43508452, 0.00191668, 0.00023860, 0.01199701, 0.00000000, 0.00000000, 0.00000000, 0.00000000
1, 0.1325, 53, -0.03624269, -0.93716007, -0.36380103, 1.38929713, -2.42452645, 0.68110782, -3.59543991, -21.16340256, -76.23501587, 69.40995026, -1.92937267, -65.25048065, 0.69745052, -0.47198564, 0.31857425, 0.43508953, 0.00257516, 0.00157028, 0.01232094, 0.00000000, 0.00000000, 0.00000000, 0.00000000
1, 0.1350, 54, -0.03841723, -0.93913859, -0.36370465, 1.17422903, -2.49577832, 0.68084460, -3.59543991, -21.16340256, -76.23501587, 69.41306305, -1.93315876, -65.25572205, 0.69742751, -0.47197509, 0.31863040, 0.43509671, 0.00468366, 0.00353181, 0.01227621, 0.00000000, 0.00000000, 0.00000000, 0.00000000
1, 0.1375, 55, -0.04059473, -0.94158953, -0.36495969, 1.10224080, -2.49535155, 0.61114568, -3.59543991, -21.16340256, -76.23501587, 69.41599274, -1.93678427, -65.26103210, 0.69740462, -0.47196391, 0.31868511, 0.43510544, 0.00679792, 0.00596678, 0.01357988, 0.00000000, 0.00000000, 0.00000000, 0.00000000
1, 0.1400, 56, -0.04083714, -0.94219655, -0.36557946, 1.10328758, -2.63272810, 0.53933924, -3.59543991, -21.16340256, -76.23501587, 69.41895294, -1.94035876, -65.26672363, 0.69738007, -0.47195193, 0.31874117, 0.43511668, 0.00697798, 0.00655758, 0.01424855, 0.00000000, 0.00000000, 0.00000000, 0.00000000
1, 0.1425, 57, -0.03950466, -0.94109631, -0.36470997, 0.95664120, -2.28788280, 0.54449469, -3.59543991, -21.16340256, -76.23501587, 69.42150116, -1.94364583, -65.27160645, 0.69735950, -0.47194096, 0.31879067, 0.43512529, 0.00558816, 0.00544345, 0.01342142, 0.00000000, 0.00000000, 0.00000000, 0.00000000
1, 0.1450, 58, -0.04192677, -0.94305509, -0.36607918, 0.80988795, -1.94193959, 0.47972524, -3.74159598, -21.25109673, -77.17041779, 69.42366791, -1.94647312, -65.27573395, 0.69734222, -0.47193155, 0.31883287, 0.43513241, 0.00796095, 0.00739074, 0.01482666, 0.00000000, 0.00000000, 0.00000000, 0.00000000
1, 0.1475, 59, -0.04264676, -0.94405735, -0.36499327, 0.73606330, -1.73270118, 0.34292367, -3.74159598, -21.25109673, -77.17041779, 69.42562866, -1.94879878, -65.27948761, 0.69732583, -0.47192386, 0.31886971, 0.43513986, 0.00864037, 0.00838208, 0.01377329, 0.00000000, 0.00000000, 0.00000000, 0.00000000
1, 0.1500, 60, -0.04410003, -0.94491756, -0.36549225, 0.80841506, -1.80016875, 0.27183217, -3.74159598, -21.25109673, -77.17041779, 69.42779541, -1.95101643, -65.28346252, 0.69730753, -0.47191721, 0.31890759, 0.43514863, 0.01005496, 0.00923026, 0.01430804, 0.00000000, 0.00000000, 0.00000000, 0.00000000
1, 0.1525, 61, -0.04433594, -0.94724709, -0.36601621, 0.87961346, -1.72916126, 0.20262226, -3.74159598, -21.25109673, -77.17041779, 69.43013000, -1.95300877, -65.28733826, 0.69728833, -0.47191277, 0.31894433, 0.43515724, 0.01025612, 0.01154667, 0.01487052, 0.00000000, 0.00000000, 0.00000000, 0.00000000
1, 0.1550, 62, -0.04335640, -0.94691890, -0.36283603, 0.87788343, -1.52144861, 0.20544451, -3.74159598, -21.25109673, -77.17041779, 69.43244171, -1.95482683, -65.29072571, 0.69727063, -0.47191024, 0.31897795, 0.43516368, 0.00924490, 0.01120526, 0.01172847, 0.00000000, 0.00000000, 0.00000000, 0.00000000
1, 0.1825, 63, -0.03608891, -0.93910921, -0.35637712, 0.86611837, -0.26089174, -0.68664497, -2.83542824, -21.19263268, -77.28733826, 69.44077301, -1.95914030, -65.30978394, 0.69717509, -0.47189093, 0.31911400, 0.43523815, 0.00190213, 0.00334704, 0.00540665, 0.00000000, 0.00000000, 0.00000000, 0.00000000
1, 0.1850, 64, -0.03754528, -0.93801838, -0.35574645, 1.08302307, -0.39845100, -0.61927933, -2.83542824, -21.19263268, -77.28733826, 69.44353485, -1.95803833, -65.31126404, 0.69715524, -0.47190794, 0.31912395, 0.43524414, 0.00337773, 0.00223869, 0.00482079, 0.00000000, 0.00000000, 0.00000000, 0.00000000
1, 0.1875, 65, -0.03827647, -0.93703675, -0.35585213, 1.29982126, -0.53491169, -0.62183833, -2.83542824, -21.19263268, -77.28733826, 69.44684601, -1.95705092, -65.31306458, 0.69713223, -0.47192696, 0.31913802, 0.43525004, 0.00412614, 0.00123620, 0.00498033, 0.00000000, 0.00000000, 0.00000000, 0.00000000
1, 0.1900, 66, -0.03864356, -0.93653995, -0.35633257, 1.44484425, -0.67314243, -0.55424660, -2.83542824, -21.19263268, -77.28733826, 69.45053101, -1.95634377, -65.31512451, 0.69710737, -0.47194639, 0.31915626, 0.43525535, 0.00450557, 0.00071639, 0.00552076, 0.00000000, 0.00000000, 0.00000000, 0.00000000
1, 0.1925, 67, -0.04034406, -0.93568563, -0.35643819, 1.51845574, -0.88018370, -0.55729467, -2.83542824, -21.19263268, -77.28733826, 69.45441437, -1.95581067, -65.31768036, 0.69708031, -0.47196501, 0.31917834, 0.43526232, 0.00621536, -0.00016201, 0.00568971, 0.00000000, 0.00000000, 0.00000000, 0.00000000
1, 0.1950, 68, -0.03998214, -0.93531352, -0.35655543, 1.66441929, -1.15469253, -0.63143432, -2.51388478, -21.89418221, -76.29347992, 69.45868683, -1.95534420, -65.32093811, 0.69704908, -0.47198376, 0.31920519, 0.43527222, 0.00586165, -0.00056046, 0.00587672, 0.00000000, 0.00000000, 0.00000000, 0.00000000
1, 0.1975, 69, -0.04095399, -0.93567288, -0.35753652, 1.44830430, -1.08856785, -0.55989110, -2.51388478, -21.89418221, -76.29347992, 69.46240997, -1.95498502, -65.32398224, 0.69702137, -0.47199941, 0.31922975, 0.43528190, 0.00683970, -0.00022411, 0.00691861, 0.00000000, 0.00000000, 0.00000000, 0.00000000
1, 0.2000, 70, -0.04265704, -0.93505061, -0.35862330, 1.51924551, -0.95161825, -0.41838577, -2.51388478, -21.89418221, -76.29347992, 69.46630096, -1.95484376, -65.32656860, 0.69699508, -0.47201633, 0.31925431, 0.43528742, 0.00854521, -0.00087023, 0.00806877, 0.00000000, 0.00000000, 0.00000000, 0.00000000
1, 0.2025, 71, -0.04434425, -0.93521965, -0.35593408, 1.44762123, -1.01823175, -0.62887526, -2.51388478, -21.89418221, -76.29347992, 69.47001648, -1.95426273, -65.32950592, 0.69696712, -0.47203308, 0.31927705, 0.43529737, 0.01024255, -0.00072432, 0.00544018, 0.00000000, 0.00000000, 0.00000000, 0.00000000
1, 0.2050, 72, -0.04421282, -0.93453372, -0.35225791, 1.59300768, -1.22350299, -0.70207393, -2.51388478, -21.89418221, -76.29347992, 69.47412109, -1.95369220, -65.33298492, 0.69693553, -0.47205058, 0.31930357, 0.43530956, 0.01012108, -0.00143576, 0.00183088, 0.00000000, 0.00000000, 0.00000000, 0.00000000
1, 0.2075, 73, -0.04554411, -0.93370044, -0.35077608, 1.44845474, -1.15341139, -0.84053123, -3.21543407, -21.80648994, -76.70272064, 69.47785187, -1.95273852, -65.33643341, 0.69690460, -0.47206748, 0.31932622, 0.43532413, 0.01146900, -0.00229228, 0.00040993, 0.00000000, 0.00000000, 0.00000000, 0.00000000
1, 0.2100, 74, -0.04553124, -0.93484306, -0.34822744, 1.44824171, -1.15121436, -0.98038095, -3.21543407, -21.80648994, -76.70272064, 69.48159790, -1.95145547, -65.33998871, 0.69687235, -0.47208539, 0.31934741, 0.43534079, 0.01147851, -0.00117326, -0.00207782, 0.00000000, 0.00000000, 0.00000000, 0.00000000
1, 0.2125, 75, -0.04613728, -0.93545175, -0.34884652, 1.44651175, -0.94350153, -0.97755867, -3.21543407, -21.80648994, -76.70272064, 69.48532104, -1.94998956, -65.34305573, 0.69684160, -0.47210523, 0.31936541, 0.43535531, 0.01211013, -0.00058812, -0.00139830, 0.00000000, 0.00000000, 0.00000000, 0.00000000
1, 0.2150, 76, -0.04456189, -0.93556386, -0.34909582, 1.59294510, -1.28614950, -1.12256384, -3.21543407, -21.80648994, -76.70272064, 69.48943329, -1.94848955, -65.34705353, 0.69680560, -0.47212505, 0.31938854, 0.43537453, 0.01056090, -0.00050205, -0.00108209, 0.00000000, 0.00000000, 0.00000000, 0.00000000
1, 0.2175, 77, -0.04261516, -0.93546313, -0.34689873, 1.80906022, -1.35227418, -1.19410694, -3.21543407, -21.80648994, -76.70272064, 69.49410248, -1.94687998, -65.35126495, 0.69676620, -0.47214803, 0.31941399, 0.43539399, 0.00864225, -0.00063217, -0.00320321, 0.00000000, 0.00000000, 0.00000000, 0.00000000
1, 0.2200, 78, -0.04163948, -0.93463475, -0.34432191, 1.80963683, -1.42151177, -1.19504774, -2.66004086, -21.95264435, -76.00116730, 69.50434113, -1.95434809, -65.35601044, 0.69672525, -0.47216761, 0.31951717, 0.43536252, 0.00753630, -0.00151902, -0.00561124, 0.00000000, 0.00000000, 0.00000000, 0.00000000
1, 0.2225, 79, -0.04223661, -0.93431056, -0.34138298, 1.73559904, -1.21007645, -1.47169912, -2.66004086, -21.95264435, -76.00116730, 69.50882721, -1.95195925, -65.36013794, 0.69668496, -0.47219279, 0.31953692, 0.43538532, 0.00817510, -0.00187182, -0.00847736, 0.00000000, 0.00000000, 0.00000000, 0.00000000
1, 0.2250, 80, -0.03895739, -0.93347311, -0.33868852, 1.59183574, -1.21141934, -1.47124743, -2.66004086, -21.95264435, -76.00116730, 69.51293945, -1.94957447, -65.36426544, 0.69664609, -0.47221568, 0.31955525, 0.43540901, 0.00493748, -0.00273579, -0.01110503, 0.00000000, 0.00000000, 0.00000000, 0.00000000
1, 0.2275, 81, -0.03714051, -0.93176299, -0.33732188, 1.44738936, -1.14242625, -1.53977978, -2.66004086, -21.95264435, -76.00116730, 69.51669312, -1.94696558, -65.36828613, 0.69660860, -0.47223756, 0.31957048, 0.43543410, 0.00316610, -0.00447029, -0.01241094, 0.00000000, 0.00000000, 0.00000000, 0.00000000
1, 0.2300, 82, -0.03470374, -0.93265027, -0.33465213, 1.22933125, -0.86639172, -1.60526407, -2.66004086, -21.95264435, -76.00116730, 69.51988220, -1.94396520, -65.37171936, 0.69657469, -0.47225922, 0.31957880, 0.43545887, 0.00078167, -0.00360411, -0.01502919, 0.00000000, 0.00000000, 0.00000000, 0.00000000
1, 0.2325, 83, -0.03397255, -0.93326837, -0.33417431, 1.08593166, -0.93477511, -1.74560285, -3.15697169, -22.74188805, -76.43963623, 69.52272034, -1.94069493, -65.37544250, 0.69654042, -0.47227901, 0.31958532, 0.43548745, 0.00010752, -0.00300521, -0.01546127, 0.00000000, 0.00000000, 0.00000000, 0.00000000
1, 0.2350, 84, -0.03142751, -0.93167955, -0.33268881, 0.87018037, -0.93569094, -1.81485009, -3.15697169, -22.74188805, -76.43963623, 69.52502441, -1.93726623, -65.37921143, 0.69650769, -0.47229597, 0.31958908, 0.43551853, -0.00237771, -0.00460988, -0.01690990, 0.00000000, 0.00000000, 0.00000000, 0.00000000
1, 0.2375, 85, -0.02804032, -0.93066657, -0.33365783, 0.72526377, -0.79855883, -1.81251693, -3.15697169, -22.74188805, -76.43963623, 69.52695465, -1.93372095, -65.38266754, 0.69647747, -0.47231203, 0.31958944, 0.43554926, -0.00570306, -0.00563657, -0.01591009, 0.00000000, 0.00000000, 0.00000000, 0.00000000
1, 0.2400, 86, -0.02707441, -0.93113112, -0.33525547, 0.50961894, -0.80057317, -1.81183934, -3.15697169, -22.74188805, -76.43963623, 69.52834320, -1.93017566, -65.38613129, 0.69644940, -0.47232482, 0.31958777, 0.43558148, -0.00660713, -0.00518251, -0.01429040, 0.00000000, 0.00000000, 0.00000000, 0.00000000
1, 0.2425, 87, -0.02440986, -0.92941356, -0.33413485, 0.43842065, -0.87158066, -1.74262953, -3.15697169, -22.74188805, -76.43963623, 69.52956390, -1.92685449, -65.38970184, 0.69642222, -0.47233537, 0.31958723, 0.43561387, -0.00921375, -0.00690925, -0.01539177, 0.00000000, 0.00000000, 0.00000000, 0.00000000
1, 0.2450, 88, -0.02247596, -0.92901844, -0.33535478, 0.22183555, -0.73731697, -1.60022068, -3.15697169, -22.74188805, -76.38117218, 69.53022003, -1.92375505, -65.39282990, 0.69639963, -0.47234288, 0.31958407, 0.43564424, -0.01109358, -0.00731021, -0.01416177, 0.00000000, 0.00000000, 0.00000000, 0.00000000
1, 0.2475, 89, -0.02125692, -0.92976761, -0.33414674, 0.00514397, -0.60195470, -1.52773690, -3.39082146, -21.48494530, -76.38117218, 69.53033447, -1.92070365, -65.39557648, 0.69638085, -0.47234789, 0.31957754, 0.43567362, -0.01225940, -0.00656331, -0.01536867, 0.00000000, 0.00000000, 0.00000000, 0.00000000
1, 0.2500, 90, -0.02137032, -0.93222290, -0.33442849, -0.21097095, -0.53582996, -1.45619369, -3.39082146, -21.48494530, -76.38117218, 69.52988434, -1.91776371, -65.39810944, 0.69636542, -0.47234973, 0.31956869, 0.43570274, -0.01209471, -0.00410706, -0.01509476, 0.00000000, 0.00000000, 0.00000000, 0.00000000
1, 0.2525, 91, -0.01907006, -0.93462348, -0.33776927, -0.64572054, -0.12443343, -1.44919419, -3.39082146, -21.48494530, -76.38117218, 69.52832031, -1.91447628, -65.39966583, 0.69635743, -0.47234884, 0.31954950, 0.43573055, -0.01433762, -0.00169861, -0.01178018, 0.00000000, 0.00000000, 0.00000000, 0.00000000
1, 0.2550, 92, -0.01727233, -0.93441039, -0.34351298, -0.64540094, -0.12772898, -1.23941958, -3.39082146, -21.48494530, -76.38117218, 69.52675629, -1.91168797, -65.40105438, 0.69635141, -0.47234645, 0.31953254, 0.43575519, -0.01608673, -0.00190365, -0.00606263, 0.00000000, 0.00000000, 0.00000000, 0.00000000
1, 0.2575, 93, -0.01486379, -0.93445605, -0.34816211, -0.71948266, 0.14745128, -1.16550589, -3.39082146, -21.48494530, -76.38117218, 69.52498627, -1.90882635, -65.40172577, 0.69634873, -0.47234505, 0.31951144, 0.43577638, -0.01844534, -0.00184876, -0.00144306, 0.00000000, 0.00000000, 0.00000000, 0.00000000
1, 0.2600, 94, -0.01632874, -0.93272477, -0.34935459, -0.43063381, 0.07320989, -0.67787600, -3.44928384, -22.74188805, -76.58579254, 69.52391815, -1.90717602, -65.40215302, 0.69634724, -0.47234392, 0.31949925, 0.43578893, -0.01695161, -0.00357449, -0.00026831, 0.00000000, 0.00000000, 0.00000000, 0.00000000
1, 0.2625, 95, -0.01632874, -0.93272477, -0.34935459, -0.43063381, 0.07320989, -0.67787600, -3.44928384, -22.74188805, -76.58579254, 69.52285767, -1.90552568, -65.40256500, 0.69634575, -0.47234279, 0.31948707, 0.43580148, -0.01692282, -0.00356889, -0.00028604, 0.00000000, 0.00000000, 0.00000000, 0.00000000
1, 0.2650, 96, -0.01862461, -0.93240148, -0.34690100, 0.65194643, -0.40467677, -0.47807443, -3.44928384, -22.74188805, -76.58579254, 69.52453613, -1.90476024, -65.40393066, 0.69633168, -0.47235218, 0.31949449, 0.43580836, -0.01461359, -0.00390285, -0.00271243, 0.00000000, 0.00000000, 0.00000000, 0.00000000
1, 0.2675, 97, -0.01862461, -0.93240148, -0.34690100, 0.65194643, -0.40467677, -0.47807443, -3.44928384, -22.74188805, -76.58579254, 69.52620697, -1.90399492, -65.40529633, 0.69631761, -0.47236156, 0.31950191, 0.43581524, -0.01460024, -0.00391346, -0.00268525, 0.00000000, 0.00000000, 0.00000000, 0.00000000
1, 0.2700, 98, -0.02708657, -0.93544298, -0.34326431, 0.86859417, -0.47629401, -0.19999336, -3.44928384, -22.74188805, -76.58579254, 69.54615784, -1.88477445, -65.40447998, 0.69618869, -0.47256082, 0.31945932, 0.43583632, -0.00580301, -0.00100410, -0.00599971, 0.00000000, 0.00000000, 0.00000000, 0.00000000
1, 0.2725, 99, -0.03071481, -0.93852228, -0.34403720, 0.58196408, -0.55151290, 0.00974383, -3.65390229, -22.27418900, -76.52732849, 69.54765320, -1.88528013, -65.40576172, 0.69617897, -0.47256437, 0.31947333, 0.43583781, -0.00218358, 0.00206643, -0.00520226, 0.00000000, 0.00000000, 0.00000000, 0.00000000
1, 0.2750, 100, -0.03385902, -0.94171697, -0.34517944, 0.29548442, -0.69157529, -0.06115912, -3.65390229, -22.27418900, -76.52732849, 69.54845428, -1.88573968, -65.40744019, 0.69617051, -0.47256270, 0.31948599, 0.43584380, 0.00095261, 0.00525659, -0.00404692, 0.00000000, 0.00000000, 0.00000000, 0.00000000
1, 0.2775, 101, -0.03907388, -0.94233674, -0.34652242, 0.08052283, -0.76392579, 0.00850251, -3.65390229, -22.27418900, -76.52732849, 69.54870605, -1.88642657, -65.40921783, 0.69616443, -0.47255659, 0.31949845, 0.43585098, 0.00615549, 0.00587517, -0.00269958, 0.00000000, 0.00000000, 0.00000000, 0.00000000
1, 0.2800, 102, -0.04161251, -0.94419396, -0.34642345, -0.06240666, -0.90044826, -0.20270185, -3.65390229, -22.27418900, -76.52732849, 69.54862213, -1.88674247, -65.41149902, 0.69615692, -0.47254848, 0.31950945, 0.43586376, 0.00868860, 0.00773299, -0.00279987, 0.00000000, 0.00000000, 0.00000000, 0.00000000
1, 0.2825, 103, -0.04354244, -0.94714934, -0.34670913, 0.08355667, -1.17495716, -0.27684140, -3.65390229, -22.27418900, -76.52732849, 69.54892731, -1.88712156, -65.41448975, 0.69614530, -0.47254053, 0.31952524, 0.43587950, 0.01061192, 0.01068670, -0.00250912, 0.00000000, 0.00000000, 0.00000000, 0.00000000
1, 0.2850, 104, -0.04450795, -0.94620186, -0.34449312, 0.15454198, -1.10175252, -0.48590100, -2.89389062, -22.06957054, -76.70272064, 69.54941559, -1.88694227, -65.41750336, 0.69613135, -0.47253579, 0.31953841, 0.43589717, 0.01158056, 0.00973624, -0.00471717, 0.00000000, 0.00000000, 0.00000000, 0.00000000
1, 0.2875, 105, -0.04619940, -0.94695938, -0.34364584, 0.51604348, -1.37314844, -0.63064301, -2.89389062, -22.06957054, -76.70272064, 69.55083466, -1.88666213, -65.42127228, 0.69611043, -0.47253498, 0.31955770, 0.43591732, 0.01327689, 0.01048488, -0.00554136, 0.00000000, 0.00000000, 0.00000000, 0.00000000
1, 0.2900, 106, -0.04509942, -0.94796014, -0.34207487, 0.58692235, -1.29884541, -0.90962738, -2.89389062, -22.06957054, -76.70272064, 69.55242920, -1.88566267, -65.42511749, 0.69608665, -0.47253790, 0.31957361, 0.43594044, 0.01219436, 0.01147545, -0.00708643, 0.00000000, 0.00000000, 0.00000000, 0.00000000
1, 0.2925, 107, -0.04473053, -0.95016038, -0.34284249, 0.65985066, -1.43555057, -0.98165959, -2.89389062, -22.06957054, -76.70272064, 69.55422211, -1.88461888, -65.42934418, 0.69606048, -0.47254112, 0.31959158, 0.43596554, 0.01184367, 0.01366413, -0.00628978, 0.00000000, 0.00000000, 0.00000000, 0.00000000
1, 0.2950, 108, -0.04341647, -0.94813728, -0.34635794, 0.95062411, -1.84609318, -1.12805724, -2.89389062, -22.06957054, -76.70272064, 69.55677032, -1.88358688, -65.43464661, 0.69602710, -0.47254586, 0.31961700, 0.43599507, 0.01054761, 0.01162493, -0.00273287, 0.00000000, 0.00000000, 0.00000000, 0.00000000
1, 0.2975, 109, -0.04172286, -0.94799429, -0.34721458, 1.09543407, -1.98212683, -1.20031524, -3.27389646, -22.47880745, -77.46273041, 69.55969238, -1.88250709, -65.44034576, 0.69599056, -0.47255200, 0.31964517, 0.43602610, 0.00887283, 0.01146370, -0.00182858, 0.00000000, 0.00000000, 0.00000000, 0.00000000
1, 0.3000, 110, -0.03906339, -0.94698298, -0.34830433, 1.16951573, -2.25730681, -1.27422893, -3.27389646, -22.47880745, -77.46273041, 69.56282043, -1.88149381, -65.44674683, 0.69595069, -0.47255716, 0.31967741, 0.43606055, 0.00623105, 0.01043272, -0.00068790, 0.00000000, 0.00000000, 0.00000000, 0.00000000
1, 0.3025, 111, -0.03628274, -0.94548637, -0.34889811, 1.31421936, -2.39224219, -1.41641188, -3.27389646, -22.47880745, -77.46273041, 69.56633759, -1.88026714, -65.45359802, 0.69590700, -0.47256422, 0.31971166, 0.43609756, 0.00347179, 0.00891405, -0.00003698, 0.00000000, 0.00000000, 0.00000000, 0.00000000
1, 0.3050, 112, -0.03289209, -0.94545662, -0.34988219, 1.16930270, -2.25510979, -1.41407871, -3.27389646, -22.47880745, -77.46273041, 69.56947327, -1.87892270, -65.46011353, 0.69586575, -0.47257039, 0.31974244, 0.43613413, 0.00010459, 0.00886440, 0.00099811, 0.00000000, 0.00000000, 0.00000000, 0.00000000
1, 0.3075, 113, -0.03036338, -0.94174182, -0.35093027, 1.02622271, -2.32678914, -1.34464264, -3.27389646, -22.47880745, -77.46273041, 69.57225800, -1.87779856, -65.46674347, 0.69582611, -0.47257322, 0.31977367, 0.43617138, -0.00240451, 0.00513214, 0.00209150, 0.00000000, 0.00000000, 0.00000000, 0.00000000
1, 0.3100, 114, -0.02818752, -0.94049567, -0.35140443, 1.02690589, -2.39712501, -1.27565873, -2.83542824, -21.89418221, -76.73194885, 69.57505035, -1.87690008, -65.47348022, 0.69578660, -0.47257492, 0.31980669, 0.43620831, -0.00456470, 0.00386840, 0.00261110, 0.00000000, 0.00000000, 0.00000000, 0.00000000
1, 0.3125, 115, -0.02564797, -0.93997473, -0.35262364, 0.73728591, -2.12505770, -1.13114262, -2.83542824, -21.89418221, -76.73194885, 69.57709503, -1.87609887, -65.47945404, 0.69575334, -0.47257379, 0.31983429, 0.43624225, -0.00709026, 0.00333470, 0.00386357, 0.00000000, 0.00000000, 0.00000000, 0.00000000
1, 0.3150, 116, -0.02420327, -0.93859512, -0.35407183, 0.59362930, -2.12749934, -1.06076610, -2.83542824, -21.89418221, -76.73194885, 69.57877350, -1.87547350, -65.48535919, 0.69572228, -0.47256994, 0.31986132, 0.43627614, -0.00852407, 0.00194448, 0.00533906, 0.00000000, 0.00000000, 0.00000000, 0.00000000
1, 0.3175, 117, -0.02396119, -0.93992519, -0.35555905, 0.73623914, -1.98768103, -1.05933630, -2.83542824, -21.89418221, -76.73194885, 69.58079529, -1.87472343, -65.49095154, 0.69569075, -0.47256958, 0.31988758, 0.43630758, -0.00875306, 0.00326186, 0.00685921, 0.00000000, 0.00000000, 0.00000000, 0.00000000
1, 0.3200, 118, -0.02372135, -0.93930775, -0.35567230, 0.88057905, -2.05557585, -1.06072879, -2.83542824, -21.89418221, -76.73194885, 69.57611847, -1.86262763, -65.49648285, 0.69565761, -0.47257346, 0.31982020, 0.43640563, -0.00878190, 0.00266641, 0.00689358, 0.00000000, 0.00000000, 0.00000000, 0.00000000
1, 0.3225, 119, -0.02347883, -0.94088191, -0.35728547, 0.88262868, -2.26658416, -0.85377640, -2.98158431, -21.54340744, -77.02426147, 69.57852173, -1.86260712, -65.50253296, 0.69562459, -0.47257122, 0.31985420, 0.43643579, -0.00902406, 0.00422591, 0.00854597, 0.00000000, 0.00000000, 0.00000000, 0.00000000
1, 0.3250, 120, -0.02432393, -0.94102091, -0.35643050, 0.73619515, -1.92393613, -0.70877129, -2.98158431, -21.54340744, -77.02426147, 69.58052063, -1.86262906, -65.50765991, 0.69559687, -0.47256902, 0.31988311, 0.43646124, -0.00817934, 0.00435281, 0.00772381, 0.00000000, 0.00000000, 0.00000000, 0.00000000
1, 0.3275, 121, -0.02493002, -0.94090259, -0.35630521, 0.80818325, -1.92436326, -0.63907242, -2.98158431, -21.54340744, -77.02426147, 69.58270264, -1.86280835, -65.51273346, 0.69556904, -0.47256744, 0.31991342, 0.43648514, -0.00757639, 0.00422120, 0.00763425, 0.00000000, 0.00000000, 0.00000000, 0.00000000
1, 0.3300, 122, -0.02712392, -0.94025815, -0.35910141, 0.88038456, -1.92698729, -0.42952362, -2.98158431, -21.54340744, -77.02426147, 69.58506775, -1.86348152, -65.51763153, 0.69554240, -0.47256544, 0.31994662, 0.43650538, -0.00539423, 0.00356281, 0.01046923, 0.00000000, 0.00000000, 0.00000000, 0.00000000
1, 0.3325, 123, -0.03003569, -0.94026136, -0.35982868, 1.02367771, -1.85750532, -0.35910970, -2.98158431, -21.54340744, -77.02426147, 69.58777618, -1.86426067, -65.52229309, 0.69551545, -0.47256577, 0.31998086, 0.43652284, -0.00249605, 0.00354999, 0.01124090, 0.00000000, 0.00000000, 0.00000000, 0.00000000
1, 0.3350, 124, -0.03185821, -0.94049484, -0.36129490, 1.02263081, -1.72012877, -0.28730339, -3.12774038, -22.36188316, -76.11809540, 69.59046936, -1.86508918, -65.52657318, 0.69549018, -0.47256690, 0.32001373, 0.43653780, -0.00068798, 0.00376749, 0.01275134, 0.00000000, 0.00000000, 0.00000000, 0.00000000
1, 0.3375, 125, -0.03427731, -0.94246566, -0.36180890, 1.09231222, -1.44360554, -0.21384138, -3.12774038, -22.36188316, -76.11809540, 69.59332275, -1.86584783, -65.53015137, 0.69546682, -0.47257122, 0.32004383, 0.43654829, 0.00171789, 0.00572145, 0.01331208, 0.00000000, 0.00000000, 0.00000000, 0.00000000
1, 0.3400, 126, -0.03791116, -0.94443190, -0.36305353, 1.09267592, -1.51064599, -0.35463181, -3.12774038, -22.36188316, -76.11809540, 69.59617615, -1.86633146, -65.53400421, 0.69544160, -0.47257587, 0.32007349, 0.43656161, 0.00534330, 0.00767046, 0.01460341, 0.00000000, 0.00000000, 0.00000000, 0.00000000
1, 0.3425, 127, -0.04034068, -0.94333178, -0.36339831, 0.87508804, -1.30275071, -0.49098170, -3.12774038, -22.36188316, -76.11809540, 69.59848022, -1.86631417, -65.53747559, 0.69541883, -0.47258019, 0.32009652, 0.43657640, 0.00777312, 0.00655633, 0.01498589, 0.00000000, 0.00000000, 0.00000000, 0.00000000
1, 0.3450, 128, -0.04250871, -0.94727510, -0.36345422, 0.87613481, -1.44012725, -0.56278807, -3.12774038, -22.36188316, -76.11809540, 69.60079193, -1.86624932, -65.54134369, 0.69539434, -0.47258371, 0.32012090, 0.43659365, 0.00994228, 0.01048565, 0.01507971, 0.00000000, 0.00000000, 0.00000000, 0.00000000
1, 0.3475, 129, -0.04601882, -0.94864523, -0.36334583, 0.80299330, -1.30122519, -0.63060564, -3.53697753, -21.48494530, -76.52732849, 69.60292053, -1.86590588, -65.54494476, 0.69537097, -0.47258791, 0.32014179, 0.43661103, 0.01345839, 0.01184261, 0.01500598, 0.00000000, 0.00000000, 0.00000000, 0.00000000
1, 0.3500, 130, -0.04734962, -0.94878298, -0.36273423, 0.87628531, -1.50497079, -0.84342819, -3.53697753, -21.48494530, -76.52732849, 69.60525513, -1.86523783, -65.54920959, 0.69534338, -0.47259277, 0.32016426, 0.43663323, 0.01480085, 0.01196587, 0.01443237, 0.00000000, 0.00000000, 0.00000000, 0.00000000
1, 0.3525, 131, -0.04940989, -0.94879431, -0.36260799, 1.02318883, -1.91575778, -1.05929899, -3.53697753, -21.48494530, -76.52732849, 69.60798645, -1.86442459, -65.55462646, 0.69530934, -0.47259745, 0.32019216, 0.43666190, 0.01687530, 0.01196015, 0.01435069, 0.00000000, 0.00000000, 0.00000000, 0.00000000
1, 0.3550, 132, -0.05012562, -0.94945049, -0.35992822, 1.38285398, -1.97834241, -1.27114344, -3.53697753, -21.48494530, -76.52732849, 69.61163330, -1.86316907, -65.56037140, 0.69526917, -0.47260848, 0.32022223, 0.43669191, 0.01761293, 0.01259339, 0.01173023, 0.00000000, 0.00000000, 0.00000000, 0.00000000
1, 0.3575, 133, -0.05134176, -0.94713819, -0.35866836, 1.45441604, -1.97437549, -1.48114395, -3.53697753, -21.48494530, -76.52732849, 69.61546326, -1.86141634, -65.56628418, 0.69522625, -0.47262207, 0.32025075, 0.43672457, 0.01885964, 0.01025689, 0.01053265, 0.00000000, 0.00000000, 0.00000000, 0.00000000
1, 0.3600, 134, -0.05134176, -0.94713819, -0.35866836, 1.45441604, -1.97437549, -1.48114395, -3.33235884, -21.42648315, -76.46886444, 69.61928558, -1.85966349, -65.57221222, 0.69518334, -0.47263566, 0.32027927, 0.43675724, 0.01889022, 0.01023275, 0.01059487, 0.00000000, 0.00000000, 0.00000000, 0.00000000
1, 0.3625, 135, -0.04926220, -0.94841677, -0.35453746, 2.10831451, -2.86292815, -1.84503043, -3.33235884, -21.42648315, -76.46886444, 69.62483215, -1.85783029, -65.58053589, 0.69512397, -0.47265327, 0.32032377, 0.43680000, 0.01684264, 0.01147670, 0.00655434, 0.00000000, 0.00000000, 0.00000000, 0.00000000
1, 0.3650, 136, -0.04926220, -0.94841677, -0.35453746, 2.10831451, -2.86292815, -1.84503043, -3.33235884, -21.42648315, -76.46886444, 69.63037872, -1.85599375, -65.58885193, 0.69506460, -0.47267088, 0.32036823, 0.43684277, 0.01687468, 0.01144207, 0.00664461, 0.00000000, 0.00000000, 0.00000000, 0.00000000
1, 0.3675, 137, -0.04646909, -0.94842458, -0.35307693, 2.39898133, -3.27237248, -2.06135273, -3.33235884, -21.42648315, -76.46886444, 69.63668823, -1.85400701, -65.59832001, 0.69499731, -0.47269049, 0.32041946, 0.43689102, 0.01411626, 0.01141047, 0.00528678, 0.00000000, 0.00000000, 0.00000000, 0.00000000
1, 0.3700, 138, -0.04441359, -0.94730359, -0.35343060, 2.32699299, -3.27194524, -2.13105178, -3.33235884, -21.42648315, -76.46886444, 69.64164734, -1.85941052, -65.60838318, 0.69495261, -0.47267112, 0.32051215, 0.43691519, 0.01196646, 0.01026231, 0.00572261, 0.00000000, 0.00000000, 0.00000000, 0.00000000
1, 0.3725, 139, -0.04223946, -0.94544458, -0.35377318, 2.25709844, -3.54627132, -2.34436369, -2.54311609, -21.80648994, -76.93656921, 69.64762115, -1.85699999, -65.61872864, 0.69488221, -0.47268793, 0.32056326, 0.43697152, 0.00983438, 0.00836575, 0.00616246, 0.00000000, 0.00000000, 0.00000000, 0.00000000
1, 0.3750, 140, -0.04078794, -0.94360805, -0.35277045, 2.11427546, -3.68389201, -2.48564315, -2.54311609, -21.80648994, -76.93656921, 69.65325165, -1.85437584, -65.62953186, 0.69481093, -0.47270223, 0.32061362, 0.43703240, 0.00842864, 0.00649363, 0.00525141, 0.00000000, 0.00000000, 0.00000000, 0.00000000
1, 0.3775, 141, -0.03922025, -0.94344652, -0.35497072, 1.75350106, -3.54657722, -2.62248206, -2.54311609, -21.80648994, -76.93656921, 69.65797424, -1.85131204, -65.64012909, 0.69474310, -0.47271332, 0.32065704, 0.43709648, 0.00691439, 0.00630200, 0.00752834, 0.00000000, 0.00000000, 0.00000000, 0.00000000
1, 0.3800, 142, -0.03545915, -0.94259465, -0.35313243, 1.46691489, -3.68554091, -2.76330972, -2.54311609, -21.80648994, -76.93656921, 69.66199493, -1.84803569, -65.65117645, 0.69467580, -0.47271976, 0.32069838, 0.43716609, 0.00321044, 0.00542378, 0.00575519, 0.00000000, 0.00000000, 0.00000000, 0.00000000
1, 0.3825, 143, -0.03255892, -0.94242352, -0.35557970, 1.10488045, -3.40865278, -2.96819210, -2.54311609, -21.80648994, -76.93656921, 69.66510773, -1.84403944, -65.66175079, 0.69461226, -0.47272477, 0.32072997, 0.43723851, 0.00037992, 0.00523180, 0.00825244, 0.00000000, 0.00000000, 0.00000000, 0.00000000
1, 0.3850, 144, -0.03073424, -0.94292575, -0.35424694, 0.74258918, -3.06582212, -2.96235919, -2.92312193, -22.04033852, -76.70272064, 69.66726685, -1.83976185, -65.67151642, 0.69455487, -0.47272748, 0.32075295, 0.43730977, -0.00137014, 0.00571865, 0.00695437, 0.00000000, 0.00000000, 0.00000000, 0.00000000
1, 0.3875, 145, -0.02734149, -0.94181418, -0.35350370, 0.44882599, -2.30799317, -2.88118243, -2.92312193, -22.04033852, -76.70272064, 69.66864777, -1.83501077, -65.67942810, 0.69450659, -0.47273242, 0.32076249, 0.43737409, -0.00468000, 0.00459623, 0.00623274, 0.00000000, 0.00000000, 0.00000000, 0.00000000
1, 0.3900, 146, -0.02467226, -0.93999457, -0.35091516, 0.30369633, -2.16866398, -3.01869941, -2.92312193, -22.04033852, -76.70272064, 69.66966248, -1.82981539, -65.68714142, 0.69445944, -0.47273746, 0.32076710, 0.43744007, -0.00725861, 0.00276780, 0.00365970, 0.00000000, 0.00000000, 0.00000000, 0.00000000
1, 0.3925, 147, -0.02164412, -0.93694246, -0.34843069, 0.22824816, -1.75281143, -3.08275342, -2.92312193, -22.04033852, -76.70272064, 69.67044830, -1.82410955, -65.69393158, 0.69441539, -0.47274578, 0.32076403, 0.43750325, -0.01018720, -0.00029218, 0.00118700, 0.00000000, 0.00000000, 0.00000000, 0.00000000
1, 0.3950, 148, -0.01982717, -0.93656528, -0.34842864, 0.22594149, -1.47586131, -3.07899046, -2.92312193, -22.04033852, -76.70272064, 69.67120361, -1.81817436, -65.70007324, 0.69437337, -0.47275665, 0.32075679, 0.43756354, -0.01190062, -0.00067687, 0.00119621, 0.00000000, 0.00000000, 0.00000000, 0.00000000
1, 0.3975, 149, -0.01702939, -0.93598634, -0.34500399, 0.07767151, -0.92440212, -3.00108838, -2.92312193, -22.04033852, -76.70272064, 69.67155457, -1.81193984, -65.70484161, 0.69433749, -0.47277007, 0.32074061, 0.43761805, -0.01458965, -0.00126112, -0.00222397, 0.00000000, 0.00000000, 0.00000000, 0.00000000
1, 0.4000, 150, -0.01618652, -0.93402100, -0.34460905, 0.22096458, -0.85492021, -2.93067431, -2.86465931, -21.95264435, -76.55656433, 69.67224121, -1.80581582, -65.70939636, 0.69430125, -0.47278568, 0.32072541, 0.43766966, -0.01532568, -0.00323391, -0.00260881, 0.00000000, 0.00000000, 0.00000000, 0.00000000
1, 0.4025, 151, -0.01498043, -0.93217337, -0.34446102, 0.29248261, -0.78720826, -2.79010963, -2.86465931, -21.95264435, -76.55656433, 69.67311096, -1.79995763, -65.71366119, 0.69426608, -0.47280213, 0.32071134, 0.43771800, -0.01642958, -0.00508988, -0.00274378, 0.00000000, 0.00000000, 0.00000000, 0.00000000
1, 0.4050, 152, -0.01280416, -0.93044424, -0.34431681, 0.58126891, -0.92409605, -2.72296977, -2.86465931, -21.95264435, -76.55656433, 69.67470551, -1.79437625, -65.71820068, 0.69422764, -0.47282115, 0.32070279, 0.43776470, -0.01850848, -0.00683153, -0.00286302, 0.00000000, 0.00000000, 0.00000000, 0.00000000
1, 0.4075, 153, -0.01183608, -0.93152338, -0.34592387, 0.58169508, -0.92849010, -2.44327044, -2.86465931, -21.95264435, -76.55656433, 69.67628479, -1.78945446, -65.72249603, 0.69419181, -0.47283819, 0.32069719, 0.43780720, -0.01939070, -0.00576448, -0.00123092, 0.00000000, 0.00000000, 0.00000000, 0.00000000
1, 0.4100, 154, -0.01197199, -0.92831433, -0.34685203, 0.65714312, -1.34434259, -2.37921572, -2.86465931, -21.95264435, -76.55656433, 69.67809296, -1.78504515, -65.72771454, 0.69415289, -0.47285196, 0.32069930, 0.43785250, -0.01917788, -0.00898671, -0.00027397, 0.00000000, 0.00000000, 0.00000000, 0.00000000
1, 0.4125, 155, -0.00894366, -0.92901862, -0.34821320, 0.73154455, -1.62281847, -2.24335480, -3.65390229, -22.62496376, -76.43963623, 69.68010712, -1.78119099, -65.73346710, 0.69411254, -0.47286326, 0.32070771, 0.43789810, -0.02213897, -0.00829661, 0.00111932, 0.00000000, 0.00000000, 0.00000000, 0.00000000
1, 0.4150, 156, -0.00810589, -0.92763829, -0.34990457, 0.87898088, -2.03909802, -2.10960126, -3.65390229, -22.62496376, -76.43963623, 69.68251038, -1.77801836, -65.74008179, 0.69406909, -0.47287184, 0.32072523, 0.43794492, -0.02292139, -0.00969303, 0.00284940, 0.00000000, 0.00000000, 0.00000000, 0.00000000
1, 0.4175, 157, -0.00714253, -0.92833477, -0.35248333, 0.95417202, -2.38900828, -1.83483160, -3.65390229, -22.62496376, -76.43963623, 69.68511963, -1.77579391, -65.74727631, 0.69402504, -0.47287631, 0.32075161, 0.43799067, -0.02384599, -0.00901348, 0.00547040, 0.00000000, 0.00000000, 0.00000000, 0.00000000
1, 0.4200, 158, -0.00521685, -0.92596787, -0.35403961, 0.95380849, -2.32196784, -1.69404113, -3.65390229, -22.62496376, -76.43963623, 69.67685699, -1.74770010, -65.75328827, 0.69396269, -0.47292048, 0.32057706, 0.43816948, -0.02528154, -0.01134449, 0.00688636, 0.00000000, 0.00000000, 0.00000000, 0.00000000
1, 0.4225, 159, -0.00545746, -0.92815709, -0.35578337, 1.09994078, -2.53492856, -1.27776611, -3.65390229, -22.62496376, -76.43963623, 69.67982483, -1.74690771, -65.76034546, 0.69392139, -0.47292179, 0.32061273, 0.43820724, -0.02502709, -0.00917363, 0.00867847, 0.00000000, 0.00000000, 0.00000000, 0.00000000
1, 0.4250, 160, -0.00606952, -0.92837793, -0.35774070, 1.24496388, -2.67315960, -1.21017444, -3.27389646, -22.30341911, -76.49810028, 69.68315887, -1.74638820, -65.76766968, 0.69387829, -0.47292358, 0.32065263, 0.43824449, -0.02440598, -0.00897330, 0.01069021, 0.00000000, 0.00000000, 0.00000000, 0.00000000
1, 0.4275, 161, -0.00655265, -0.92887181, -0.35774726, 1.17130828, -2.40237331, -0.85656130, -3.27389646, -22.30341911, -76.49810028, 69.68627930, -1.74646676, -65.77404785, 0.69384122, -0.47292432, 0.32069138, 0.43827406, -0.02392425, -0.00849831, 0.01074788, 0.00000000, 0.00000000, 0.00000000, 0.00000000
1, 0.4300, 162, -0.00740419, -0.92825776, -0.35798049, 1.38590634, -2.26298237, -0.78543252, -3.27389646, -22.30341911, -76.49810028, 69.68992615, -1.74658978, -65.78004456, 0.69380355, -0.47292915, 0.32073081, 0.43829960, -0.02307483, -0.00913435, 0.01104084, 0.00000000, 0.00000000, 0.00000000, 0.00000000
1, 0.4325, 163, -0.00631756, -0.92726588, -0.35821193, 1.53045928, -2.33307409, -0.64697534, -3.27389646, -22.30341911, -76.49810028, 69.69393921, -1.74709904, -65.78607941, 0.69376522, -0.47293451, 0.32077408, 0.43832275, -0.02417034, -0.01015032, 0.01133797, 0.00000000, 0.00000000, 0.00000000, 0.00000000
1, 0.4350, 164, -0.00498079, -0.92654657, -0.35649291, 1.38806260, -2.47508931, -0.50855529, -3.27389646, -22.30341911, -76.49810028, 69.69759369, -1.74805236, -65.79232788, 0.69372869, -0.47293541, 0.32081956, 0.43834627, -0.02552373, -0.01089120, 0.00967905, 0.00000000, 0.00000000, 0.00000000, 0.00000000
1, 0.4375, 165, -0.00484714, -0.92756569, -0.35394263, 1.16906428, -2.06277657, -0.43230850, -2.83542824, -22.42034531, -76.29347992, 69.70067596, -1.74882936, -65.79753876, 0.69369811, -0.47293642, 0.32085750, 0.43836591, -0.02567095, -0.00989038, 0.00717929, 0.00000000, 0.00000000, 0.00000000, 0.00000000
1, 0.4400, 166, -0.00423808, -0.92721158, -0.35271651, 0.73751760, -2.00086331, -0.22023813, -2.83542824, -22.42034531, -76.29347992, 69.70267487, -1.75004745, -65.80242157, 0.69367439, -0.47293001, 0.32089257, 0.43838471, -0.02630126, -0.01025599, 0.00598607, 0.00000000, 0.00000000, 0.00000000, 0.00000000
1, 0.4425, 167, -0.00132814, -0.92477798, -0.34999683, 0.66563594, -2.00153470, -0.22001228, -2.83542824, -22.42034531, -76.29347992, 69.70449066, -1.75126863, -65.80730438, 0.69365144, -0.47292250, 0.32092696, 0.43840402, -0.02923250, -0.01269985, 0.00329632, 0.00000000, 0.00000000, 0.00000000, 0.00000000
1, 0.4450, 168, -0.00107417, -0.92494488, -0.34682277, 0.51898944, -1.65669000, -0.21485685, -2.83542824, -22.42034531, -76.29347992, 69.70591736, -1.75220525, -65.81137848, 0.69363236, -0.47291595, 0.32095477, 0.43842068, -0.02950281, -0.01254117, 0.00014567, 0.00000000, 0.00000000, 0.00000000, 0.00000000
1, 0.4475, 169, 0.00051929, -0.92731112, -0.34417391, 0.66065902, -1.38059378, -0.07169583, -2.83542824, -22.42034531, -76.29347992, 69.70766449, -1.75323379, -65.81467438, 0.69361520, -0.47291324, 0.32098123, 0.43843138, -0.03111421, -0.01018494, -0.00247431, 0.00000000, 0.00000000, 0.00000000, 0.00000000
1, 0.4500, 170, -0.01523125, -0.91021264, -0.32408392, 0.87232983, -0.83126998, 0.35470170, -3.09850907, -21.83572006, -76.23501587, 69.70989990, -1.75478482, -65.81632233, 0.69360375, -0.47291601, 0.32100582, 0.43842849, -0.01539073, -0.02729619, -0.02252752, 0.00000000, 0.00000000, 0.00000000, 0.00000000
1, 0.4525, 171, 0.02307382, -0.91378313, -0.36307582, 1.22378957, 0.26670602, 1.20772254, -3.09850907, -21.83572006, -76.23501587, 69.71290588, -1.75738668, -65.81465149, 0.69360453, -0.47292861, 0.32102597, 0.43839890, -0.05374119, -0.02374262, 0.01651412, 0.00000000, 0.00000000, 0.00000000, 0.00000000
1, 0.4550, 172, 0.02363724, -0.95251280, -0.34534028, 0.72667944, -0.24352895, 2.53129029, -3.09850907, -21.83572006, -76.23501587, 69.71467590, -1.76352978, -65.81302643, 0.69361955, -0.47291961, 0.32106274, 0.43835807, -0.05441178, 0.01497943, -0.00119132, 0.00000000, 0.00000000, 0.00000000, 0.00000000
1, 0.4575, 173, 0.02363724, -0.95251280, -0.34534028, 0.72667944, -0.24352895, 2.53129029, -3.09850907, -21.83572006, -76.23501587, 69.71643829, -1.76967490, -65.81140900, 0.69363451, -0.47291055, 0.32109949, 0.43831718, -0.05451898, 0.01497180, -0.00116125, 0.00000000, 0.00000000, 0.00000000, 0.00000000
1, 0.4600, 174, 0.00811804, -0.94396973, -0.33735707, -0.25934777, -2.86747909, 1.44983089, -3.09850907, -21.83572006, -76.23501587, 69.71596527, -1.77556348, -65.81687927, 0.69363099, -0.47286904, 0.32115537, 0.43832663, -0.03910250, 0.00643468, -0.00915119, 0.00000000, 0.00000000, 0.00000000, 0.00000000
1, 0.4625, 175, 0.00811804, -0.94396973, -0.33735707, -0.25934777, -2.86747909, 1.44983089, -2.89389062, -21.68956375, -75.97193909, 69.71548462, -1.78145218, -65.82234192, 0.69362748, -0.47282752, 0.32121125, 0.43833607, -0.03920523, 0.00644058, -0.00915796, 0.00000000, 0.00000000, 0.00000000, 0.00000000
1, 0.4650, 176, 0.00325829, -0.94467419, -0.34126824, 1.25409591, -3.33694291, 1.36857820, -2.89389062, -21.68956375, -75.97193909, 69.71882629, -1.78755426, -65.82897949, 0.69360429, -0.47280499, 0.32128784, 0.43834099, -0.03445193, 0.00712806, -0.00519094, 0.00000000, 0.00000000, 0.00000000, 0.00000000
1, 0.4675, 177, 0.00312393, -0.94655967, -0.34704009, 1.47347653, -3.68990469, 1.92259574, -2.89389062, -21.68956375, -75.97193909, 69.72272491, -1.79525924, -65.83596802, 0.69358158, -0.47277853, 0.32137761, 0.43833962, -0.03445198, 0.00899375, 0.00064618, 0.00000000, 0.00000000, 0.00000000, 0.00000000
1, 0.4700, 178, 0.00166211, -0.94750631, -0.35010651, 1.62727475, -4.74140549, 2.81705594, -2.89389062, -21.68956375, -75.97193909, 69.72700500, -1.78744161, -65.84341431, 0.69351500, -0.47281447, 0.32137805, 0.43840590, -0.03285379, 0.00991059, 0.00378117, 0.00000000, 0.00000000, 0.00000000, 0.00000000
1, 0.4725, 179, -0.00149684, -0.94652206, -0.35118476, 1.92148256, -5.37723637, 3.78663373, -2.89389062, -21.68956375, -75.97193909, 69.73210144, -1.80098069, -65.85276031, 0.69349366, -0.47276556, 0.32151687, 0.43839061, -0.02993102, 0.00890237, 0.00494540, 0.00000000, 0.00000000, 0.00000000, 0.00000000
1, 0.4750, 180, -0.00500479, -0.94802201, -0.35058957, 2.28829980, -6.14647770, 4.47440481, -2.89389062, -21.95264435, -75.73809052, 69.73815155, -1.81679893, -65.86330414, 0.69346970, -0.47270995, 0.32167786, 0.43837020, -0.02669901, 0.01037395, 0.00445229, 0.00000000, 0.00000000, 0.00000000, 0.00000000
1, 0.4775, 181, -0.01359822, -0.95114356, -0.35000876, 2.50783038, -6.56428242, 4.74778223, -2.89389062, -21.95264435, -75.73809052, 69.74478149, -1.83361483, -65.87459564, 0.69344318, -0.47265178, 0.32185012, 0.43834847, -0.01839892, 0.01346427, 0.00398311, 0.00000000, 0.00000000, 0.00000000, 0.00000000
1, 0.4800, 182, -0.02207028, -0.95717275, -0.35240546, 2.87285471, -7.18845797, 5.01788568, -2.89389062, -21.95264435, -75.73809052, 69.75236511, -1.85160649, -65.88712311, 0.69341105, -0.47259125, 0.32203808, 0.43832651, -0.01024071, 0.01945710, 0.00650743, 0.00000000, 0.00000000, 0.00000000, 0.00000000
1, 0.4825, 183, -0.02994142, -0.96257240, -0.35564911, 3.23561645, -7.59942722, 4.94118738, -2.89389062, -21.95264435, -75.73809052, 69.76090240, -1.86976898, -65.90068054, 0.69337153, -0.47253281, 0.32223493, 0.43830737, -0.00268640, 0.02481491, 0.00989425, 0.00000000, 0.00000000, 0.00000000, 0.00000000
1, 0.4850, 184, -0.03819339, -0.96608657, -0.36191809, 3.38226247, -7.94427156, 4.93603182, -2.89389062, -21.95264435, -75.73809052, 69.76982880, -1.88821673, -65.91504669, 0.69332802, -0.47247332, 0.32243833, 0.43829083, 0.00524377, 0.02828521, 0.01631305, 0.00000000, 0.00000000, 0.00000000, 0.00000000
1, 0.4875, 185, -0.03638073, -0.96532851, -0.36276558, 3.52890921, -8.28911686, 4.93087673, -3.44928384, -21.60187149, -76.08885956, 69.77915192, -1.90695000, -65.93023682, 0.69328052, -0.47241274, 0.32264829, 0.43827686, 0.00310433, 0.02748109, 0.01731691, 0.00000000, 0.00000000, 0.00000000, 0.00000000
1, 0.4900, 186, -0.03603113, -0.95800084, -0.35923260, 3.45294714, -7.74138021, 5.28825188, -3.44928384, -21.60187149, -76.08885956, 69.78823090, -1.92604804, -65.94384003, 0.69324094, -0.47235364, 0.32285288, 0.43825230, 0.00242159, 0.02010912, 0.01393646, 0.00000000, 0.00000000, 0.00000000, 0.00000000
1, 0.4925, 187, -0.05241616, -0.96162713, -0.36890817, 3.23354125, -7.19828320, 5.85585451, -3.44928384, -21.60187149, -76.08885956, 69.79672241, -1.94600034, -65.95568085, 0.69321287, -0.47229248, 0.32305300, 0.43821514, 0.01845859, 0.02369523, 0.02375501, 0.00000000, 0.00000000, 0.00000000, 0.00000000
1, 0.4950, 188, -0.05516389, -0.94059420, -0.37053567, 3.45023298, -7.33364391, 5.78337097, -3.44928384, -21.60187149, -76.08885956, 69.80575562, -1.96590281, -65.96790314, 0.69318098, -0.47223377, 0.32325649, 0.43817893, 0.02085916, 0.00261903, 0.02553455, 0.00000000, 0.00000000, 0.00000000, 0.00000000
1, 0.4975, 189, -0.06517383, -0.96168602, -0.37755895, 2.66526437, -8.28618908, 4.23433781, -3.44928384, -21.60187149, -76.08885956, 69.81296539, -1.98298860, -65.98370361, 0.69313556, -0.47216499, 0.32345092, 0.43818146, 0.03057108, 0.02367700, 0.03267936, 0.00000000, 0.00000000, 0.00000000, 0.00000000
1, 0.5000, 190, -0.07056189, -0.97991258, -0.37709376, 2.03138018, -9.88249969, 4.07488298, -4.12160206, -21.89418221, -76.00116730, 69.81872559, -2.00108075, -66.00338745, 0.69308382, -0.47207242, 0.32366174, 0.43820724, 0.03564355, 0.04187936, 0.03231233, 0.00000000, 0.00000000, 0.00000000, 0.00000000
1, 0.5025, 191, -0.07100743, -0.98867625, -0.37478304, 1.89566541, -10.66303158, 5.18378496, -4.12160206, -21.89418221, -76.00116730, 69.82418823, -2.02243686, -66.02394867, 0.69303852, -0.47196254, 0.32389447, 0.43822530, 0.03571660, 0.05062230, 0.03009553, 0.00000000, 0.00000000, 0.00000000, 0.00000000
1, 0.5050, 192, -0.07183447, -0.99094814, -0.37090582, 2.46915722, -10.38839912, 5.67521429, -4.12160206, -21.89418221, -76.00116730, 69.83106232, -2.04470849, -66.04344940, 0.69299388, -0.47186044, 0.32413357, 0.43822899, 0.03615516, 0.05286592, 0.02633551, 0.00000000, 0.00000000, 0.00000000, 0.00000000
1, 0.5075, 193, -0.07329396, -0.98730063, -0.36852524, 3.54056764, -9.54857540, 5.75304079, -4.12160206, -21.89418221, -76.00116730, 69.84053040, -2.06643891, -66.06090546, 0.69294494, -0.47178200, 0.32437101, 0.43821529, 0.03723564, 0.04917432, 0.02411482, 0.00000000, 0.00000000, 0.00000000, 0.00000000
1, 0.5100, 194, -0.06968816, -0.97988993, -0.36976337, 4.97064066, -8.69770432, 5.34026384, -4.12160206, -21.89418221, -76.00116730, 69.85353088, -2.08646631, -66.07673645, 0.69288325, -0.47173613, 0.32460496, 0.43818885, 0.03328051, 0.04169720, 0.02557009, 0.00000000, 0.00000000, 0.00000000, 0.00000000
1, 0.5125, 195, -0.06669606, -0.97390497, -0.37468797, 6.11722326, -8.33418179, 4.92180538, -4.32622051, -21.45571518, -75.85501099, 69.86938477, -2.10519195, -66.09207153, 0.69280833, -0.47171408, 0.32484007, 0.43815690, 0.02996182, 0.03562827, 0.03075836, 0.00000000, 0.00000000, 0.00000000, 0.00000000
1, 0.5150, 196, -0.06707133, -0.97216332, -0.37624907, 6.76614523, -8.60179424, 4.70623493, -4.32622051, -21.45571518, -75.85501099, 69.88689423, -2.12363935, -66.10822296, 0.69272268, -0.47170073, 0.32508317, 0.43812630, 0.03001533, 0.03379273, 0.03261036, 0.00000000, 0.00000000, 0.00000000, 0.00000000
1, 0.5175, 197, -0.06731933, -0.97214186, -0.37783682, 6.62757158, -9.22627449, 4.69821978, -4.32622051, -21.45571518, -75.85501099, 69.90412140, -2.14259577, -66.12585449, 0.69263393, -0.47167939, 0.32533431, 0.43810323, 0.02993270, 0.03367960, 0.03448448, 0.00000000, 0.00000000, 0.00000000, 0.00000000
1, 0.5200, 198, -0.06888267, -0.97389597, -0.37602752, 5.77003241, -9.79262543, 4.97310352, -4.32622051, -21.45571518, -75.85501099, 69.91492462, -2.16945219, -66.14540863, 0.69258499, -0.47158229, 0.32561564, 0.43807623, 0.03102766, 0.03538556, 0.03285823, 0.00000000, 0.00000000, 0.00000000, 0.00000000
1, 0.5225, 199, -0.06971954, -0.97612798, -0.37496021, 4.83930683, -10.15633202, 5.53073454, -4.32622051, -21.45571518, -75.85501099, 69.92774963, -2.19115901, -66.16451263, 0.69251591, -0.47151902, 0.32587224, 0.43806273, 0.03148594, 0.03755427, 0.03200591, 0.00000000, 0.00000000, 0.00000000, 0.00000000
1, 0.5650, 200, -0.10236410, -1.00035822, -0.41070151, 3.78896379, -5.72467232, 0.55857420, -3.88775206, -21.36802101, -75.12422943, 70.09811401, -2.47225285, -66.40613556, 0.69162703, -0.47073510, 0.32918307, 0.43783462, 0.05922857, 0.06095661, 0.07060747, 0.00000000, 0.00000000, 0.00000000, 0.00000000
1, 0.5675, 201, -0.10006193, -0.99840528, -0.40896559, 4.72278452, -5.70935202, 0.13608901, -3.88775206, -21.36802101, -75.12422943, 70.11050415, -2.47743320, -66.41945648, 0.69153881, -0.47075084, 0.32931575, 0.43785727, 0.05683606, 0.05893387, 0.06907596, 0.00000000, 0.00000000, 0.00000000, 0.00000000
1, 0.5700, 202, -0.09919504, -0.99847603, -0.40371397, 5.44589472, -6.25324202, -0.08346997, -3.88775206, -21.36802101, -75.12422943, 70.11214447, -2.49900150, -66.43626404, 0.69152421, -0.47062609, 0.32951865, 0.43786171, 0.05559310, 0.05901022, 0.06385683, 0.00000000, 0.00000000, 0.00000000, 0.00000000
1, 0.5725, 203, -0.09990306, -0.99952692, -0.39920729, 6.23951960, -6.65578938, -0.44122303, -3.88775206, -21.36802101, -75.12422943, 70.12844849, -2.50361943, -66.45230103, 0.69140804, -0.47065982, 0.32967412, 0.43789184, 0.05622058, 0.05996770, 0.05961865, 0.00000000, 0.00000000, 0.00000000, 0.00000000
1, 0.5750, 204, -0.10146558, -1.00079989, -0.39665744, 6.60196114, -7.06346369, -0.72769624, -3.88775206, -21.36802101, -75.12422943, 70.14570618, -2.50790620, -66.46953583, 0.69128251, -0.47069719, 0.32983625, 0.43792787, 0.05770836, 0.06114163, 0.05735298, 0.00000000, 0.00000000, 0.00000000, 0.00000000
1, 0.5775, 205, -0.10133750, -1.00131178, -0.39519918, 7.03664923, -7.53750610, -1.15518558, -3.68313360, -21.39725113, -75.29962158, 70.16411591, -2.51158786, -66.48825836, 0.69114494, -0.47073957, 0.33000526, 0.43797201, 0.05751608, 0.06154710, 0.05619758, 0.00000000, 0.00000000, 0.00000000, 0.00000000
1, 0.5800, 206, -0.10108858, -1.00303316, -0.39510381, 7.46971273, -7.80493498, -1.50992787, -3.68313360, -21.39725113, -75.29962158, 70.18365479, -2.51465583, -66.50791931, 0.69099760, -0.47078851, 0.33017883, 0.43802115, 0.05721366, 0.06315511, 0.05642349, 0.00000000, 0.00000000, 0.00000000, 0.00000000
1, 0.5825, 207, -0.10278725, -1.00424576, -0.39682966, 8.12213802, -8.55171680, -2.08170748, -3.68313360, -21.39725113, -75.29962158, 70.20491791, -2.51699901, -66.52981567, 0.69083267, -0.47084424, 0.33036396, 0.43808186, 0.05887149, 0.06424381, 0.05849884, 0.00000000, 0.00000000, 0.00000000, 0.00000000
1, 0.5850, 208, -0.10473089, -1.00641859, -0.40028051, 8.98952389, -9.22614861, -2.72314882, -3.68313360, -21.39725113, -75.29962158, 70.22845459, -2.51840234, -66.55384064, 0.69064772, -0.47091112, 0.33056092, 0.43815282, 0.06079064, 0.06627882, 0.06233615, 0.00000000, 0.00000000, 0.00000000, 0.00000000
1, 0.5875, 209, -0.10630329, -1.00643981, -0.39930001, 9.92748833, -9.69659042, -3.08229423, -3.68313360, -21.39725113, -75.29962158, 70.25438690, -2.51934552, -66.57928467, 0.69044638, -0.47099024, 0.33077025, 0.43822730, 0.06234661, 0.06614782, 0.06178148, 0.00000000, 0.00000000, 0.00000000, 0.00000000
1, 0.5900, 210, -0.10772960, -1.00837886, -0.39309469, 10.86366081, -10.02196407, -3.85910749, -3.59543991, -21.80648994, -74.89038086, 70.28272247, -2.51872706, -66.60614777, 0.69022548, -0.47108585, 0.33098540, 0.43830994, 0.06378369, 0.06791955, 0.05604106, 0.00000000, 0.00000000, 0.00000000, 0.00000000
1, 0.5925, 211, -0.11109495, -1.01057088, -0.38701150, 11.72585773, -10.07325840, -4.49208164, -3.59543991, -21.80648994, -74.89038086, 70.31324768, -2.51664519, -66.63367462, 0.68998927, -0.47119853, 0.33120304, 0.43839642, 0.06718534, 0.06993067, 0.05045843, 0.00000000, 0.00000000, 0.00000000, 0.00000000
1, 0.5950, 212, -0.11277486, -1.01125431, -0.38274160, 12.44476318, -10.19403553, -5.19547033, -3.59543991, -21.80648994, -74.89038086, 70.34560394, -2.51299429, -66.66207123, 0.68973792, -0.47132584, 0.33142209, 0.43848944, 0.06892893, 0.07042159, 0.04671884, 0.00000000, 0.00000000, 0.00000000, 0.00000000
1, 0.5975, 213, -0.11518641, -1.01071179, -0.37845147, 12.80404568, -10.31596947, -6.03757906, -3.59543991, -21.80648994, -74.89038086, 70.37889862, -2.50744772, -66.69145966, 0.68947393, -0.47146350, 0.33163774, 0.43859378, 0.07143719, 0.06967999, 0.04297421, 0.00000000, 0.00000000, 0.00000000, 0.00000000
1, 0.6000, 214, -0.11493023, -1.01222026, -0.37603113, 13.01783562, -10.23153496, -6.87641382, -3.59543991, -21.80648994, -74.89038086, 70.41275024, -2.49983525, -66.72135162, 0.68920010, -0.47161108, 0.33184543, 0.43870822, 0.07131374, 0.07098497, 0.04110790, 0.00000000, 0.00000000, 0.00000000, 0.00000000
1, 0.6025, 215, -0.11239338, -1.00914443, -0.37537825, 13.16031933, -10.21701050, -7.71596384, -3.27389646, -22.30341911, -75.03653717, 70.44698334, -2.49021626, -66.75191498, 0.68891680, -0.47176698, 0.33204558, 0.43883401, 0.06894460, 0.06770229, 0.04101497, 0.00000000, 0.00000000, 0.00000000, 0.00000000
1, 0.6050, 216, -0.11131027, -1.00607872, -0.37447813, 13.23301601, -10.47791004, -8.69890118, -3.27389646, -22.30341911, -75.03653717, 70.48145294, -2.47848296, -66.78388977, 0.68862140, -0.47192851, 0.33224019, 0.43897668, 0.06806611, 0.06442715, 0.04067824, 0.00000000, 0.00000000, 0.00000000, 0.00000000
1, 0.6075, 217, -0.12306745, -1.00637937, -0.37445867, 13.22590828, -9.83500004, -9.94908333, -3.27389646, -22.30341911, -75.03653717, 70.51587677, -2.46324587, -66.81540680, 0.68831861, -0.47210515, 0.33241218, 0.43913153, 0.08008897, 0.06451662, 0.04122082, 0.00000000, 0.00000000, 0.00000000, 0.00000000
1, 0.6100, 218, -0.10540830, -1.01099467, -0.35538051, 13.13197041, -7.45632696, -11.52514172, -3.27389646, -22.30341911, -75.03653717, 70.54986572, -2.44228864, -66.84260559, 0.68801880, -0.47231445, 0.33253118, 0.43928611, 0.06279527, 0.06891967, 0.02269632, 0.00000000, 0.00000000, 0.00000000, 0.00000000
1, 0.6125, 219, -0.07664493, -0.99500287, -0.36399281, 12.97524452, -5.99489260, -12.06433392, -3.27389646, -22.30341911, -75.03653717, 70.58333588, -2.41883516, -66.86679840, 0.68772590, -0.47253922, 0.33262119, 0.43943480, 0.03444085, 0.05271733, 0.03185314, 0.00000000, 0.00000000, 0.00000000, 0.00000000
1, 0.6150, 220, -0.07930341, -0.97529310, -0.37627193, 12.91972160, -7.93641281, -11.95059776, -3.36159015, -21.86495209, -75.38731384, 70.61683655, -2.39724803, -66.89545441, 0.68742049, -0.47274363, 0.33274090, 0.43960211, 0.03747576, 0.03279859, 0.04467806, 0.00000000, 0.00000000, 0.00000000, 0.00000000
1, 0.6175, 221, -0.08100860, -0.96630293, -0.36928776, 13.01381969, -10.69645596, -12.54785347, -3.36159015, -21.86495209, -75.38731384, 70.65085602, -2.37651873, -66.93112183, 0.68708825, -0.47292730, 0.33289671, 0.43980613, 0.03954243, 0.02359743, 0.03824855, 0.00000000, 0.00000000, 0.00000000, 0.00000000
1, 0.6200, 222, -0.07466752, -0.97018278, -0.36239490, 13.24061394, -12.13854504, -13.19761086, -3.36159015, -21.86495209, -75.38731384, 70.68283081, -2.35962367, -66.97119904, 0.68675745, -0.47307029, 0.33308557, 0.44002599, 0.03349598, 0.02728123, 0.03187776, 0.00000000, 0.00000000, 0.00000000, 0.00000000
1, 0.6225, 223, -0.06990552, -0.97744888, -0.35994974, 13.52660465, -12.05673313, -13.82689667, -3.36159015, -21.86495209, -75.38731384, 70.71827698, -2.33696437, -67.01110840, 0.68639743, -0.47325760, 0.33325332, 0.44025922, 0.02912913, 0.03432769, 0.03001071, 0.00000000, 0.00000000, 0.00000000, 0.00000000
1, 0.6250, 224, -0.06418237, -0.98370641, -0.35895747, 13.73663330, -11.42718697, -14.09880733, -3.36159015, -21.86495209, -75.38731384, 70.75418854, -2.31311893, -67.04973602, 0.68603706, -0.47345597, 0.33341077, 0.44048840, 0.02382182, 0.04036284, 0.02960400, 0.00000000, 0.00000000, 0.00000000, 0.00000000
1, 0.6275, 225, -0.06247205, -0.98460060, -0.35604194, 13.87604046, -10.93788528, -14.30244827, -3.62467122, -23.23881912, -74.71499634, 70.79039001, -2.28836155, -67.08735657, 0.68567663, -0.47366253, 0.33356005, 0.44071445, 0.02254324, 0.04103274, 0.02727885, 0.00000000, 0.00000000, 0.00000000, 0.00000000
1, 0.6300, 226, -0.06089249, -0.98254889, -0.35283664, 13.94424820, -10.51959133, -14.43687820, -3.62467122, -23.23881912, -74.71499634, 70.82670593, -2.26292539, -67.12409210, 0.68531704, -0.47387490, 0.33370224, 0.44093752, 0.02140731, 0.03875607, 0.02466583, 0.00000000, 0.00000000, 0.00000000, 0.00000000
1, 0.6325, 227, -0.05640641, -0.97804981, -0.34788904, 13.65125561, -9.95958900, -14.98784828, -3.62467122, -23.23881912, -74.71499634, 70.86224365, -2.23570108, -67.15993500, 0.68495923, -0.47409230, 0.33382750, 0.44116518, 0.01739598, 0.03403611, 0.02029759, 0.00000000, 0.00000000, 0.00000000, 0.00000000
1, 0.6350, 228, -0.05352913, -0.97184908, -0.35073274, 13.36020756, -9.60949612, -15.40179062, -3.62467122, -23.23881912, -74.71499634, 70.89700317, -2.20718765, -67.19526672, 0.68460268, -0.47431153, 0.33394030, 0.44139731, 0.01501597, 0.02761847, 0.02370790, 0.00000000, 0.00000000, 0.00000000, 0.00000000
1, 0.6375, 229, -0.04386125, -0.96356714, -0.35074797, 13.43191910, -9.67037296, -15.89243126, -3.62467122, -23.23881912, -74.71499634, 70.93195343, -2.17754507, -67.23113251, 0.68424016, -0.47453481, 0.33404961, 0.44163689, 0.00586508, 0.01911843, 0.02429269, 0.00000000, 0.00000000, 0.00000000, 0.00000000
1, 0.6400, 230, -0.04049969, -0.95396954, -0.35024133, 13.35935497, -9.60070801, -15.96118927, -2.92312193, -22.36188316, -74.68576050, 70.96669769, -2.14766574, -67.26686859, 0.68387800, -0.47475794, 0.33415633, 0.44187707, 0.00302465, 0.00930446, 0.02435243, 0.00000000, 0.00000000, 0.00000000, 0.00000000
1, 0.6425, 231, -0.03992131, -0.94706988, -0.35111445, 13.21490955, -9.53171539, -16.02972031, -2.92312193, -22.36188316, -74.68576050, 71.00106812, -2.11753941, -67.30247498, 0.68351698, -0.47498003, 0.33425987, 0.44211856, 0.00297170, 0.00219095, 0.02578583, 0.00000000, 0.00000000, 0.00000000, 0.00000000
1, 0.6450, 232, -0.03871611, -0.94437063, -0.35034239, 13.43055344, -9.52970123, -16.03039742, -2.92312193, -22.36188316, -74.68576050, 71.03594971, -2.08739257, -67.33805847, 0.68315363, -0.47520524, 0.33436537, 0.44235834, 0.00229231, -0.00072438, 0.02558285, 0.00000000, 0.00000000, 0.00000000, 0.00000000
1, 0.6475, 233, -0.03760052, -0.94155812, -0.34028146, 13.93466473, -9.66127777, -16.17370987, -2.92312193, -22.36188316, -74.68576050, 71.07209015, -2.05699205, -67.37406158, 0.68278253, -0.47543761, 0.33447611, 0.44259787, 0.00170697, -0.00375968, 0.01611179, 0.00000000, 0.00000000, 0.00000000, 0.00000000
1, 0.6500, 234, -0.02436994, -0.94156951, -0.33517644, 14.21977806, -9.38054276, -16.24077225, -2.92312193, -22.36188316, -74.68576050, 71.10889435, -2.02618170, -67.40943146, 0.68240970, -0.47567731, 0.33458465, 0.44283327, -0.01098622, -0.00397438, 0.01160795, 0.00000000, 0.00000000, 0.00000000, 0.00000000
1, 0.6525, 235, -0.01774297, -0.92853427, -0.33327967, 14.28316116, -8.40615273, -16.50753021, -2.95235300, -22.56650162, -74.18883514, 71.14576721, -1.99393010, -67.44268036, 0.68204057, -0.47592917, 0.33467644, 0.44306195, -0.01705064, -0.01723636, 0.01031336, 0.00000000, 0.00000000, 0.00000000, 0.00000000
1, 0.6550, 236, -0.01774297, -0.92853427, -0.33327967, 14.28316116, -8.40615273, -16.50753021, -2.95235300, -22.56650162, -74.18883514, 71.18262482, -1.96166050, -67.47591400, 0.68167126, -0.47618091, 0.33476818, 0.44329050, -0.01648777, -0.01746238, 0.01091552, 0.00000000, 0.00000000, 0.00000000, 0.00000000
1, 0.6575, 237, -0.01498736, -0.91373080, -0.32731542, 13.21452618, -9.59106541, -16.65998459, -2.95235300, -22.56650162, -74.18883514, 71.21688843, -1.92996073, -67.51205444, 0.68130267, -0.47640625, 0.33486545, 0.44354126, -0.01869043, -0.03247619, 0.00551104, 0.00000000, 0.00000000, 0.00000000, 0.00000000
1, 0.6600, 238, -0.01498736, -0.91373080, -0.32731542, 13.21452618, -9.59106541, -16.65998459, -2.95235300, -22.56650162, -74.18883514, 71.25113678, -1.89823675, -67.54817963, 0.68093401, -0.47663158, 0.33496273, 0.44379205, -0.01813706, -0.03268582, 0.00607074, 0.00000000, 0.00000000, 0.00000000, 0.00000000
1, 0.6625, 239, -0.01061828, -0.91639709, -0.32858714, 12.85904789, -10.07798672, -16.73536491, -2.95235300, -22.56650162, -74.18883514, 71.28450775, -1.86670566, -67.58547974, 0.68056446, -0.47684723, 0.33506283, 0.44405136, -0.02195611, -0.03022361, 0.00788793, 0.00000000, 0.00000000, 0.00000000, 0.00000000
1, 0.6650, 240, -0.00831902, -0.91600722, -0.32931909, 13.43478394, -10.14295197, -16.66818810, -2.98158431, -23.47266769, -73.98421478, 71.31930542, -1.83536792, -67.62288666, 0.68018901, -0.47707021, 0.33517015, 0.44430608, -0.02370870, -0.03082484, 0.00918910, 0.00000000, 0.00000000, 0.00000000, 0.00000000
1, 0.6675, 241, -0.00978707, -0.91208267, -0.32913381, 14.29873085, -10.27556610, -16.53293037, -2.98158431, -23.47266769, -73.98421478, 71.35624695, -1.80443013, -67.66046143, 0.67980468, -0.47730365, 0.33528915, 0.44455373, -0.02170096, -0.03497195, 0.00960895, 0.00000000, 0.00000000, 0.00000000, 0.00000000
1, 0.6700, 242, -0.00918896, -0.90659571, -0.32575169, 15.59511948, -10.54262924, -16.40090942, -2.98158431, -23.47266769, -73.98421478, 71.39390564, -1.77131331, -67.69850159, 0.67940938, -0.47754851, 0.33540025, 0.44481120, -0.02172136, -0.04068577, 0.00684351, 0.00000000, 0.00000000, 0.00000000, 0.00000000
1, 0.6725, 243, -0.00883030, -0.90075862, -0.32114175, 16.60041618, -10.39585114, -16.33226395, -2.98158431, -23.47266769, -73.98421478, 71.43654633, -1.74089587, -67.73616791, 0.67900181, -0.47781312, 0.33554524, 0.44504005, -0.02154938, -0.04677535, 0.00293368, 0.00000000, 0.00000000, 0.00000000, 0.00000000
1, 0.6750, 244, -0.00604611, -0.89346135, -0.31468147, 17.46425438, -10.52736759, -16.26692772, -2.98158431, -23.47266769, -73.98421478, 71.48135376, -1.71070814, -67.77407074, 0.67858464, -0.47808865, 0.33570114, 0.44526285, -0.02380694, -0.05433626, -0.00279060, 0.00000000, 0.00000000, 0.00000000, 0.00000000
1, 0.6775, 245, -0.00544257, -0.88545245, -0.30710608, 18.03967094, -10.58903599, -16.40953064, -2.98158431, -23.47266769, -74.36421967, 71.52758026, -1.68020666, -67.81220245, 0.67815942, -0.47837290, 0.33586192, 0.44548398, -0.02387836, -0.06261593, -0.00960624, 0.00000000, 0.00000000, 0.00000000, 0.00000000
1, 0.6800, 246, -0.00677883, -0.87938958, -0.30163383, 18.32997513, -10.93144035, -16.48505783, -2.77696586, -23.67728615, -74.36421967, 71.57453918, -1.64976025, -67.85118103, 0.67772770, -0.47865859, 0.33602971, 0.44570759, -0.02201094, -0.06895275, -0.01430625, 0.00000000, 0.00000000, 0.00000000, 0.00000000
1, 0.6825, 247, -0.00313652, -0.87576175, -0.29620907, 18.26039886, -11.20906162, -16.48859596, -2.77696586, -23.67728615, -74.36421967, 71.62132263, -1.61949873, -67.89080811, 0.67729437, -0.47894034, 0.33620077, 0.44593444, -0.02512529, -0.07285243, -0.01896134, 0.00000000, 0.00000000, 0.00000000, 0.00000000
1, 0.6850, 248, -0.00228305, -0.87238574, -0.29127124, 18.26569557, -11.83329773, -16.42714119, -2.77696586, -23.67728615, -74.36421967, 71.66812897, -1.58984232, -67.93183136, 0.67685682, -0.47921547, 0.33638164, 0.44616672, -0.02546136, -0.07649934, -0.02312860, 0.00000000, 0.00000000, 0.00000000, 0.00000000
1, 0.6875, 249, -0.00081963, -0.86938608, -0.28560722, 18.34486008, -12.73051834, -16.57944489, -2.77696586, -23.67728615, -74.36421967, 71.71518707, -1.56048703, -67.97508240, 0.67641008, -0.47948408, 0.33657482, 0.44640997, -0.02641263, -0.07977033, -0.02801764, 0.00000000, 0.00000000, 0.00000000, 0.00000000
1, 0.6900, 250, -0.00056756, -0.86566859, -0.27895215, 18.78411674, -13.69471550, -16.66389465, -2.77696586, -23.67728615, -74.36421967, 71.76337433, -1.53165305, -68.02066040, 0.67595059, -0.47975016, 0.33678547, 0.44666108, -0.02616163, -0.08376415, -0.03387846, 0.00000000, 0.00000000, 0.00000000, 0.00000000
1, 0.6925, 251, -0.00333768, -0.86430043, -0.27232689, 19.72607422, -14.58607483, -16.67905998, -3.24466538, -23.38497543, -72.93189240, 71.81395721, -1.50343621, -68.06835175, 0.67547429, -0.48002142, 0.33701816, 0.44691473, -0.02289921, -0.08542055, -0.03966960, 0.00000000, 0.00000000, 0.00000000, 0.00000000
1, 0.6950, 252, -0.00914677, -0.86291164, -0.26813900, 21.17430115, -15.82112217, -16.56065941, -3.24466538, -23.38497543, -72.93189240, 71.86820984, -1.47642565, -68.11885071, 0.67497456, -0.48030084, 0.33728424, 0.44716865, -0.01661886, -0.08711594, -0.04296190, 0.00000000, 0.00000000, 0.00000000, 0.00000000
1, 0.6975, 253, -0.01373987, -0.86104828, -0.26235780, 22.91214561, -17.32823181, -16.58677673, -3.24466538, -23.38497543, -72.93189240, 71.92687225, -1.45047104, -68.17292786, 0.67444497, -0.48059112, 0.33758903, 0.44742575, -0.01157291, -0.08930832, -0.04777387, 0.00000000, 0.00000000, 0.00000000, 0.00000000
1, 0.7000, 254, -0.02123917, -0.85945284, -0.25596374, 24.43754959, -19.18683815, -16.40714264, -3.24466538, -23.38497543, -72.93189240, 71.98943329, -1.42632198, -68.23126221, 0.67388707, -0.48088413, 0.33793777, 0.44768825, -0.00365227, -0.09125192, -0.05313332, 0.00000000, 0.00000000, 0.00000000, 0.00000000
1, 0.7025, 255, -0.02535346, -0.85610873, -0.25040525, 25.74997711, -21.39145470, -16.37139130, -3.24466538, -23.38497543, -72.93189240, 72.05537415, -1.40390015, -68.29478455, 0.67329907, -0.48117429, 0.33833191, 0.44796336, 0.00085324, -0.09496027, -0.05760038, 0.00000000, 0.00000000, 0.00000000, 0.00000000
1, 0.7050, 256, -0.02934094, -0.85339248, -0.24387904, 26.48724747, -23.60034180, -16.40375328, -2.89389062, -23.79421234, -73.31189728, 72.12326813, -1.38302088, -68.36356354, 0.67268622, -0.48145363, 0.33876511, 0.44825640, 0.00520502, -0.09804928, -0.06300209, 0.00000000, 0.00000000, 0.00000000, 0.00000000
1, 0.7075, 257, -0.03321021, -0.85042125, -0.23796016, 26.71625900, -25.19188881, -16.35614395, -2.89389062, -23.79421234, -73.31189728, 72.19178772, -1.36339188, -68.43606567, 0.67205924, -0.48172009, 0.33922422, 0.44856352, 0.00941679, -0.10139462, -0.06778534, 0.00000000, 0.00000000, 0.00000000, 0.00000000
1, 0.7100, 258, -0.03491393, -0.84507143, -0.23433104, 26.51046371, -26.43468666, -16.72202110, -2.89389062, -23.79421234, -73.31189728, 72.25985718, -1.34375846, -68.51177979, 0.67142105, -0.48197359, 0.33969530, 0.44889006, 0.01146308, -0.10711467, -0.07028604, 0.00000000, 0.00000000, 0.00000000, 0.00000000
1, 0.7125, 259, -0.03369285, -0.84389049, -0.23052733, 26.30455780, -27.67638779, -17.15782928, -2.89389062, -23.79421234, -73.31189728, 72.32745361, -1.32394373, -68.59075928, 0.67077112, -0.48221484, 0.34017780, 0.44923732, 0.01058774, -0.10866210, -0.07296860, 0.00000000, 0.00000000, 0.00000000, 0.00000000
1, 0.7150, 260, -0.02801126, -0.83931804, -0.23034678, 25.95436096, -28.91393471, -17.94280624, -2.89389062, -23.79421234, -73.31189728, 72.39422607, -1.30310106, -68.67325592, 0.67010736, -0.48244417, 0.34066638, 0.44961125, 0.00526983, -0.11359552, -0.07204139, 0.00000000, 0.00000000, 0.00000000, 0.00000000
1, 0.7175, 261, -0.02002571, -0.83461708, -0.22980237, 25.74839211, -30.21828270, -18.79909897, -2.36772871, -23.09266281, -73.04881287, 72.46054077, -1.28110743, -68.75949860, 0.66942704, -0.48266366, 0.34116271, 0.45001256, -0.00233196, -0.11865419, -0.07148528, 0.00000000, 0.00000000, 0.00000000, 0.00000000
1, 0.7200, 262, -0.01229133, -0.82612622, -0.22785525, 25.68330765, -31.17510033, -19.65114212, -2.36772871, -23.09266281, -73.04881287, 72.52895355, -1.25722826, -68.84841919, 0.66872138, -0.48289421, 0.34166828, 0.45043069, -0.00964968, -0.12751284, -0.07229680, 0.00000000, 0.00000000, 0.00000000, 0.00000000
1, 0.7225, 263, -0.00418855, -0.81850094, -0.22543336, 25.61785507, -32.06487274, -20.36239433, -2.36772871, -23.09266281, -73.04881287, 72.59499359, -1.23268163, -68.94017792, 0.66801202, -0.48310441, 0.34217313, 0.45087442, -0.01732414, -0.13549230, -0.07362208, 0.00000000, 0.00000000, 0.00000000, 0.00000000
1, 0.7250, 264, 0.00682984, -0.81100929, -0.22130872, 25.84072304, -33.02339554, -20.93564415, -2.36772871, -23.09266281, -73.04881287, 72.66159821, -1.20738542, -69.03462219, 0.66728687, -0.48331213, 0.34268776, 0.45133442, -0.02790114, -0.14333996, -0.07664031, 0.00000000, 0.00000000, 0.00000000, 0.00000000
1, 0.7275, 265, 0.01772095, -0.80155516, -0.21690939, 26.49880791, -34.46145630, -21.58675575, -2.36772871, -23.09266281, -73.04881287, 72.72989655, -1.18148649, -69.13294983, 0.66653693, -0.48351970, 0.34322259, 0.45181373, -0.03834032, -0.15315762, -0.07990468, 0.00000000, 0.00000000, 0.00000000, 0.00000000
1, 0.7300, 266, 0.02740634, -0.79322332, -0.21179156, 27.01020241, -35.49092484, -21.88214493, -2.51388478, -23.82344246, -72.55188751, 72.79947662, -1.15552807, -69.23393250, 0.66577011, -0.48372617, 0.34377390, 0.45230380, -0.04757275, -0.16185793, -0.08386549, 0.00000000, 0.00000000, 0.00000000, 0.00000000
1, 0.7325, 267, 0.03866784, -0.78209889, -0.20370150, 27.59416199, -36.59006119, -22.10877991, -2.51388478, -23.82344246, -72.55188751, 72.87053680, -1.12971342, -69.33766937, 0.66498590, -0.48393145, 0.34434414, 0.45280385, -0.05838379, -0.17335692, -0.09077351, 0.00000000, 0.00000000, 0.00000000, 0.00000000
1, 0.7350, 268, 0.04642139, -0.77247441, -0.19501621, 28.32231331, -37.69224167, -22.05616760, -2.51388478, -23.82344246, -72.55188751, 72.94342041, -1.10470331, -69.44396210, 0.66418535, -0.48413539, 0.34493768, 0.45330873, -0.06570090, -0.18336344, -0.09824571, 0.00000000, 0.00000000, 0.00000000, 0.00000000
1, 0.7375, 269, 0.05415988, -0.76085031, -0.18862203, 29.12234116, -38.79375839, -22.00377655, -2.51388478, -23.82344246, -72.55188751, 73.01829529, -1.08048582, -69.55282593, 0.66336775, -0.48433903, 0.34555522, 0.45381790, -0.07301685, -0.19537765, -0.10339266, 0.00000000, 0.00000000, 0.00000000, 0.00000000
1, 0.7400, 270, 0.06239607, -0.74951851, -0.17881183, 29.41422653, -39.27902985, -21.80149078, -2.51388478, -23.82344246, -72.55188751, 73.09388733, -1.05696881, -69.66266632, 0.66254449, -0.48453984, 0.34618431, 0.45432639, -0.08084262, -0.20710117, -0.11194341, 0.00000000, 0.00000000, 0.00000000, 0.00000000
1, 0.7425, 271, 0.07219084, -0.73520166, -0.17091428, 29.63418388, -39.70123291, -21.24841499, -2.48465347, -23.82344246, -72.23033905, 73.16999054, -1.03493607, -69.77308655, 0.66172028, -0.48473480, 0.34682706, 0.45482907, -0.09025290, -0.22181010, -0.11857207, 0.00000000, 0.00000000, 0.00000000, 0.00000000
1, 0.7450, 272, 0.08075593, -0.72094047, -0.16814734, 29.56635475, -40.06016541, -20.48371696, -2.48465347, -23.82344246, -72.23033905, 73.24588776, -1.01484537, -69.88377380, 0.66090077, -0.48491877, 0.34748191, 0.45532438, -0.09846739, -0.23645985, -0.12007289, 0.00000000, 0.00000000, 0.00000000, 0.00000000
1, 0.7475, 273, 0.09431028, -0.70940012, -0.16262174, 29.28561783, -40.70247650, -19.44241142, -2.48465347, -23.82344246, -72.23033905, 73.32106018, -0.99756056, -69.99523163, 0.66008878, -0.48508376, 0.34815377, 0.45581299, -0.11172011, -0.24838263, -0.12434366, 0.00000000, 0.00000000, 0.00000000, 0.00000000
1, 0.7500, 274, 0.09958123, -0.68840450, -0.15901178, 28.93934059, -42.10705566, -18.41122246, -2.48465347, -23.82344246, -72.23033905, 73.39537811, -0.98360777, -70.10929108, 0.65927917, -0.48522133, 0.34885287, 0.45630366, -0.11674761, -0.26975375, -0.12671220, 0.00000000, 0.00000000, 0.00000000, 0.00000000
1, 0.7525, 275, 0.09958123, -0.68840450, -0.15901178, 28.93934059, -42.10705566, -18.41122246, -2.48465347, -23.82344246, -72.23033905, 73.46968079, -0.96950489, -70.22332764, 0.65846854, -0.48535818, 0.34955147, 0.45679364, -0.11650147, -0.27012748, -0.12547067, 0.00000000, 0.00000000, 0.00000000, 0.00000000
1, 0.7550, 276, 0.10429952, -0.67586690, -0.14868711, 27.60779381, -45.70036316, -15.30829048, -1.92926037, -24.20344925, -72.11341858, 73.54072571, -0.96525067, -70.34376526, 0.65767467, -0.48541573, 0.35032079, 0.45728660, -0.12114552, -0.28301829, -0.13460679, 0.00000000, 0.00000000, 0.00000000, 0.00000000
1, 0.7575, 277, 0.10429952, -0.67586690, -0.14868711, 27.60779381, -45.70036316, -15.30829048, -1.92926037, -24.20344925, -72.11341858, 73.61177063, -0.96084636, -70.46418762, 0.65687978, -0.48547253, 0.35108954, 0.45777884, -0.12106866, -0.28337002, -0.13341795, 0.00000000, 0.00000000, 0.00000000, 0.00000000
1, 0.7600, 278, 0.11524921, -0.65331602, -0.14885309, 26.54393768, -47.06110382, -13.08518314, -1.92926037, -24.20344925, -72.11341858, 73.68018341, -0.96258134, -70.58631897, 0.65610701, -0.48548284, 0.35189027, 0.45826122, -0.13204865, -0.30625659, -0.13210630, 0.00000000, 0.00000000, 0.00000000, 0.00000000
1, 0.7625, 279, 0.11687782, -0.63510001, -0.14979954, 26.12122917, -47.84981537, -11.62575436, -1.92926037, -24.20344925, -72.11341858, 73.74756622, -0.96823078, -70.70931244, 0.65534627, -0.48546726, 0.35271299, 0.45873359, -0.13377586, -0.32480079, -0.13003080, 0.00000000, 0.00000000, 0.00000000, 0.00000000
1, 0.7650, 280, 0.11983377, -0.61552060, -0.15109442, 25.26203918, -48.01941299, -10.15650463, -1.92926037, -24.20344925, -72.11341858, 73.81279755, -0.97738630, -70.83169556, 0.65460706, -0.48542556, 0.35354450, 0.45919260, -0.13689154, -0.34469545, -0.12764211, 0.00000000, 0.00000000, 0.00000000, 0.00000000
1, 0.7675, 281, 0.12303003, -0.59617370, -0.15324873, 24.25688744, -47.91451263, -8.61311436, -2.01695418, -24.20344925, -71.82110596, 73.87551117, -0.99003255, -70.95275879, 0.65389389, -0.48535812, 0.35438034, 0.45963567, -0.14030851, -0.36434335, -0.12443554, 0.00000000, 0.00000000, 0.00000000, 0.00000000
1, 0.7700, 282, 0.12513267, -0.57488275, -0.15414906, 22.59720039, -46.91445541, -7.12538624, -2.01695418, -24.20344925, -71.82110596, 73.93466187, -0.99792260, -71.06971741, 0.65319765, -0.48530111, 0.35515767, 0.46008566, -0.14254884, -0.38591826, -0.12254280, 0.00000000, 0.00000000, 0.00000000, 0.00000000
1, 0.7725, 283, 0.12810932, -0.55902189, -0.15330136, 20.50412750, -45.64368057, -5.49269056, -2.01695418, -24.20344925, -71.82110596, 73.98791504, -1.01625073, -71.18320465, 0.65257138, -0.48517740, 0.35595554, 0.46048805, -0.14584534, -0.40203041, -0.12249586, 0.00000000, 0.00000000, 0.00000000, 0.00000000
1, 0.7750, 284, 0.13302836, -0.54219478, -0.15060988, 17.97677231, -44.02964783, -3.92386150, -2.01695418, -24.20344925, -71.82110596, 74.03479767, -1.03714442, -71.29173279, 0.65199941, -0.48502117, 0.35672125, 0.46087009, -0.15112898, -0.41907668, -0.12439904, 0.00000000, 0.00000000, 0.00000000, 0.00000000
1, 0.7775, 285, 0.13807976, -0.52577579, -0.14511436, 14.87022495, -41.93523026, -2.41656542, -2.01695418, -24.20344925, -71.82110596, 74.07384491, -1.06013691, -71.39421844, 0.65149111, -0.48482960, 0.35744151, 0.46123227, -0.15658158, -0.43567568, -0.12923732, 0.00000000, 0.00000000, 0.00000000, 0.00000000
1, 0.7800, 286, 0.13888337, -0.50790161, -0.13958789, 11.90571022, -39.63174820, -0.90689838, -1.81233561, -22.97573853, -71.35340118, 74.10540771, -1.08511925, -71.49014282, 0.65104675, -0.48460692, 0.35811490, 0.46157134, -0.15782116, -0.45369303, -0.13423191, 0.00000000, 0.00000000, 0.00000000, 0.00000000
1, 0.7825, 287, 0.14151205, -0.48980445, -0.13186218, 8.79444122, -36.98232269, 0.53799909, -1.81233561, -22.97573853, -71.35340118, 74.12908936, -1.11171424, -71.57871246, 0.65066999, -0.48435503, 0.35873431, 0.46188581, -0.16091390, -0.47189468, -0.14155765, 0.00000000, 0.00000000, 0.00000000, 0.00000000
1, 0.7850, 288, 0.14499572, -0.47318342, -0.12379422, 5.32444906, -34.40659714, 2.05300999, -1.81233561, -22.97573853, -71.35340118, 74.14400482, -1.14016223, -71.66006470, 0.65036494, -0.48406771, 0.35929796, 0.46217844, -0.16489398, -0.48857746, -0.14937267, 0.00000000, 0.00000000, 0.00000000, 0.00000000
1, 0.7875, 289, 0.14398450, -0.45545283, -0.11741084, 1.78199804, -31.76230431, 3.56918716, -1.81233561, -22.97573853, -71.35340118, 74.14994812, -1.17043984, -71.73403168, 0.65013295, -0.48374462, 0.35980421, 0.46244913, -0.16441110, -0.50632608, -0.15565330, 0.00000000, 0.00000000, 0.00000000, 0.00000000
1, 0.7900, 290, 0.14612480, -0.43528411, -0.10855263, -1.75442922, -29.87632370, 4.86524200, -1.81233561, -22.97573853, -71.35340118, 74.14698029, -1.20253968, -71.80257416, 0.64996594, -0.48338008, 0.36026156, 0.46270913, -0.16711156, -0.52646959, -0.16455811, 0.00000000, 0.00000000, 0.00000000, 0.00000000
1, 0.7925, 291, 0.14814547, -0.41330525, -0.09734473, -5.21944523, -27.92153740, 6.23193693, -2.39696002, -23.70651817, -71.06109619, 74.13527679, -1.23660302, -71.86547852, 0.64986426, -0.48297510, 0.36067045, 0.46295613, -0.16972661, -0.54838037, -0.17595908, 0.00000000, 0.00000000, 0.00000000, 0.00000000
1, 0.7950, 292, 0.15016559, -0.38829535, -0.08315767, -8.82980347, -25.82522392, 7.32126474, -2.39696002, -23.70651817, -71.06109619, 74.11444855, -1.27187085, -71.92258453, 0.64982790, -0.48253134, 0.36102447, 0.46319380, -0.17236209, -0.57327801, -0.19049200, 0.00000000, 0.00000000, 0.00000000, 0.00000000
1, 0.7975, 293, 0.15144716, -0.36094141, -0.06978860, -12.51189232, -23.79442215, 8.13017750, -2.39696002, -23.70651817, -71.06109619, 74.08432770, -1.30771780, -71.97424316, 0.64985430, -0.48204941, 0.36132091, 0.46342751, -0.17426918, -0.60047442, -0.20436269, 0.00000000, 0.00000000, 0.00000000, 0.00000000
1, 0.8000, 294, 0.15188150, -0.33347541, -0.05592730, -16.26466942, -21.96651649, 8.58687115, -2.39696002, -23.70651817, -71.06109619, 74.04475403, -1.34343565, -72.02115631, 0.64993888, -0.48152894, 0.36155811, 0.46366489, -0.17532672, -0.62773699, -0.21888404, 0.00000000, 0.00000000, 0.00000000, 0.00000000
1, 0.8025, 295, 0.15925087, -0.30705085, -0.03574187, -19.87425423, -20.06803131, 9.04405403, -2.39696002, -23.70651817, -71.06109619, 73.99607086, -1.37898278, -72.06317902, 0.65008074, -0.48097271, 0.36173657, 0.46390417, -0.18331636, -0.65391338, -0.23988211, 0.00000000, 0.00000000, 0.00000000, 0.00000000
1, 0.8050, 296, 0.16686051, -0.27952588, -0.01505129, -23.41180992, -18.23371506, 9.22036934, -2.83542824, -24.78807259, -70.71031952, 73.93844604, -1.41373038, -72.10063934, 0.65027565, -0.48038319, 0.36185485, 0.46414933, -0.19153224, -0.68114656, -0.26153478, 0.00000000, 0.00000000, 0.00000000, 0.00000000
1, 0.8075, 297, 0.17774077, -0.25028059, 0.00675869, -27.01705933, -16.94957733, 9.10968685, -2.83542824, -24.78807259, -70.71031952, 73.87176514, -1.44735515, -72.13504791, 0.65051711, -0.47975630, 0.36191714, 0.46441096, -0.20299925, -0.71005535, -0.28445867, 0.00000000, 0.00000000, 0.00000000, 0.00000000
1, 0.8100, 298, 0.19504221, -0.22329375, 0.02522163, -30.69116020, -16.07714081, 8.71388531, -2.83542824, -24.78807259, -70.71031952, 73.79587555, -1.47946775, -72.16760254, 0.65079939, -0.47908884, 0.36192542, 0.46469772, -0.22086091, -0.73665953, -0.30418929, 0.00000000, 0.00000000, 0.00000000, 0.00000000
1, 0.8125, 299, 0.20891868, -0.19328949, 0.03787229, -34.50639343, -15.48629284, 8.52454758, -2.83542824, -24.78807259, -70.71031952, 73.71042633, -1.51076221, -72.19882202, 0.65112400, -0.47837448, 0.36188450, 0.46501088, -0.23528345, -0.76623333, -0.31826735, 0.00000000, 0.00000000, 0.00000000, 0.00000000
1, 0.8150, 300, 0.22835669, -0.16489662, 0.04462142, -38.53156662, -15.65248299, 7.90599108, -2.83542824, -24.78807259, -70.71031952, 73.61494446, -1.54073513, -72.23081970, 0.65148252, -0.47760570, 0.36179829, 0.46536595, -0.25524440, -0.79414415, -0.32661113, 0.00000000, 0.00000000, 0.00000000, 0.00000000
1, 0.8175, 301, 0.25019994, -0.13059971, 0.05194480, -42.77165985, -15.95476818, 7.00652981, -2.57234716, -24.17421722, -70.82723999, 73.50891876, -1.56882298, -72.26412964, 0.65187299, -0.47678021, 0.36166361, 0.46576995, -0.27757764, -0.82790458, -0.33570492, 0.00000000, 0.00000000, 0.00000000, 0.00000000
1, 0.8200, 302, 0.27954346, -0.09160241, 0.05969136, -47.37541199, -15.77355194, 5.97493315, -2.57234716, -24.17421722, -70.82723999, 73.39586639, -1.57933342, -72.29611206, 0.65224445, -0.47599205, 0.36139572, 0.46626371, -0.30710453, -0.86633533, -0.34534073, 0.00000000, 0.00000000, 0.00000000, 0.00000000
1, 0.8225, 303, 0.30777439, -0.04719172, 0.06678990, -52.05644608, -14.96767235, 4.81218004, -2.57234716, -24.17421722, -70.82723999, 73.26663208, -1.60158765, -72.32852936, 0.65271550, -0.47506082, 0.36112893, 0.46676084, -0.33572379, -0.91008925, -0.35459626, 0.00000000, 0.00000000, 0.00000000, 0.00000000
1, 0.8250, 304, 0.34554857, 0.00551421, 0.07289610, -56.59341431, -14.29013348, 3.08769488, -2.57234716, -24.17421722, -70.82723999, 73.12604523, -1.61930716, -72.36050415, 0.65322042, -0.47408471, 0.36078784, 0.46731046, -0.37380710, -0.96207780, -0.36304790, 0.00000000, 0.00000000, 0.00000000, 0.00000000
1, 0.8275, 305, 0.39849016, 0.05968231, 0.08485910, -60.98536682, -13.75082874, 1.43080068, -2.57234716, -24.17421722, -70.82723999, 72.97447968, -1.63275099, -72.39234924, 0.65375698, -0.47306371, 0.36037648, 0.46791187, -0.42698330, -1.01546872, -0.37753844, 0.00000000, 0.00000000, 0.00000000, 0.00000000
1, 0.8300, 306, 0.43905595, 0.11638431, 0.09615307, -65.23633575, -12.86508846, -0.15191607, -2.57234716, -24.17421722, -70.82723999, 72.81226349, -1.64184904, -72.42321777, 0.65432686, -0.47200260, 0.35989204, 0.46855921, -0.46770769, -1.07133353, -0.39153564, 0.00000000, 0.00000000, 0.00000000, 0.00000000
1, 0.8325, 307, 0.48907244, 0.17229953, 0.10533827, -69.55167389, -12.88010979, -1.74663675, -2.80619693, -24.20344925, -71.79187012, 72.63931274, -1.64723873, -72.45527649, 0.65492326, -0.47089121, 0.35934651, 0.46926230, -0.51781821, -1.12635028, -0.40360141, 0.00000000, 0.00000000, 0.00000000, 0.00000000
1, 0.8350, 308, 0.55074155, 0.22747768, 0.11827644, -73.78538513, -14.00775337, -3.00701070, -2.80619693, -24.20344925, -71.79187012, 72.45586395, -1.65057313, -72.49094391, 0.65553987, -0.46971649, 0.35875988, 0.47002700, -0.57954562, -1.18056726, -0.41959220, 0.00000000, 0.00000000, 0.00000000, 0.00000000
1, 0.8375, 309, 0.60765308, 0.29596156, 0.13631596, -78.23230743, -15.41546059, -4.20054579, -2.80619693, -24.20344925, -71.79187012, 72.26143646, -1.65224206, -72.53087616, 0.65617681, -0.46847174, 0.35813451, 0.47085664, -0.63648611, -1.24802208, -0.44086379, 0.00000000, 0.00000000, 0.00000000, 0.00000000
1, 0.8400, 310, 0.67836702, 0.38444474, 0.17027463, -82.88785553, -17.53073883, -4.56371212, -2.80619693, -24.20344925, -71.79187012, 72.05552673, -1.65481329, -72.57611084, 0.65683895, -0.46713987, 0.35748675, 0.47174793, -0.70724499, -1.33540332, -0.47824174, 0.00000000, 0.00000000, 0.00000000, 0.00000000
1, 0.8425, 311, 0.74829710, 0.49968550, 0.21564235, -87.68634796, -19.59240723, -4.01646328, -2.80619693, -24.20344925, -71.79187012, 71.83774567, -1.66044176, -72.62581635, 0.65753722, -0.46571216, 0.35682344, 0.47268820, -0.77727342, -1.44946432, -0.52722096, 0.00000000, 0.00000000, 0.00000000, 0.00000000
1, 0.8450, 312, 0.83197165, 0.60776359, 0.30229717, -93.13414764, -21.12928009, -1.99123478, -2.57234716, -24.43729782, -72.37649536, 71.60642242, -1.67227840, -72.67755890, 0.65829700, -0.46417275, 0.35614511, 0.47365546, -0.86115450, -1.55627120, -0.61770606, 0.00000000, 0.00000000, 0.00000000, 0.00000000
1, 0.8475, 313, 0.97354209, 0.77399135, 0.33009130, -99.36038208, -23.87584686, 1.62875736, -2.57234716, -24.43729782, -72.37649536, 71.35964203, -1.69509447, -72.73289490, 0.65913284, -0.46248519, 0.35547686, 0.47464469, -1.00312304, -1.72112060, -0.64957881, 0.00000000, 0.00000000, 0.00000000, 0.00000000
1, 0.8500, 314, 1.07999873, 0.79993504, 0.36448577, -107.26322937, -30.49377251, 17.02161026, -2.57234716, -24.43729782, -72.37649536, 71.09325409, -1.75991845, -72.79140472, 0.66015285, -0.46049362, 0.35497534, 0.47553802, -1.11071026, -1.74553585, -0.68836212, 0.00000000, 0.00000000, 0.00000000, 0.00000000
1, 0.8525, 315, 1.07999873, 0.79993504, 0.36448577, -107.26322937, -30.49377251, 17.02161026, -2.57234716, -24.43729782, -72.37649536, 70.82691956, -1.82501113, -72.84960938, 0.66116893, -0.45849925, 0.35447162, 0.47642848, -1.11184585, -1.74398661, -0.69274235, 0.00000000, 0.00000000, 0.00000000, 0.00000000
1, 0.8550, 316, 1.21583521, 0.78924400, 0.37381968, -143.29484558, -56.76700211, 54.55076218, -2.57234716, -24.43729782, -72.37649536, 70.47164917, -2.00071001, -72.93836212, 0.66272610, -0.45541748, 0.35434446, 0.47731453, -1.25074732, -1.73114598, -0.70788974, 0.00000000, 0.00000000, 0.00000000, 0.00000000
1, 0.8575, 317, 1.21583521, 0.78924400, 0.37381968, -143.29484558, -56.76700211, 54.55076218, -3.27389646, -22.71265602, -73.77959442, 70.11660767, -2.17695355, -73.02605438, 0.66427481, -0.45232996, 0.35421282, 0.47819456, -1.25382125, -1.72895241, -0.71368164, 0.00000000, 0.00000000, 0.00000000, 0.00000000
1, 0.8600, 318, 1.27650321, 0.74591368, 0.34565988, -176.53797913, -86.76660156, 110.48445892, -3.27389646, -22.71265602, -73.77959442, 69.67971802, -2.51088524, -73.13491058, 0.66649097, -0.44800708, 0.35471448, 0.47880808, -1.32031238, -1.68277931, -0.69259453, 0.00000000, 0.00000000, 0.00000000, 0.00000000
1, 0.8625, 319, 1.30704403, 0.74317217, 0.34091184, -191.95236206, -103.30268860, 144.37142944, -3.27389646, -22.71265602, -73.77959442, 69.20531464, -2.93951082, -73.25010681, 0.66906494, -0.44301248, 0.35561675, 0.47919619, -1.35832572, -1.67680061, -0.69546527, 0.00000000, 0.00000000, 0.00000000, 0.00000000
1, 0.8650, 320, 1.31928420, 0.73742509, 0.33407792, -205.08959961, -116.41473389, 182.07417297, -3.27389646, -22.71265602, -73.77959442, 68.69864655, -3.46884394, -73.35841370, 0.67203319, -0.43737990, 0.35692412, 0.47924465, -1.37978995, -1.66740060, -0.69668591, 0.00000000, 0.00000000, 0.00000000, 0.00000000
1, 0.8675, 321, 1.27933156, 0.74735528, 0.28848773, -214.15617371, -126.36622620, 219.38681030, -3.27389646, -22.71265602, -73.77959442, 68.16935730, -4.09502411, -73.45081329, 0.67536885, -0.43119922, 0.35862178, 0.47888902, -1.35074258, -1.67327273, -0.65940320, 0.00000000, 0.00000000, 0.00000000, 0.00000000
1, 0.8700, 322, 1.21681201, 0.74745035, 0.22690751, -217.41319275, -135.56108093, 251.65502930, -4.91084480, -20.84185982, -74.42268372, 67.63143921, -4.79916096, -73.52783966, 0.67894888, -0.42462492, 0.36066478, 0.47816634, -1.30047524, -1.66896307, -0.60613674, 0.00000000, 0.00000000, 0.00000000, 0.00000000
1, 0.8725, 323, 1.13030553, 0.72398597, 0.18029043, -216.16596985, -142.62776184, 278.97161865, -4.91084480, -20.84185982, -74.42268372, 67.09653473, -5.58007860, -73.58876801, 0.68271583, -0.41772562, 0.36309427, 0.47703987, -1.22754264, -1.64078307, -0.56762630, 0.00000000, 0.00000000, 0.00000000, 0.00000000
1, 0.8750, 324, 1.03638196, 0.67767525, 0.13847107, -211.85746765, -146.89170837, 301.63021851, -4.91084480, -20.84185982, -74.42268372, 66.57119751, -6.41779995, -73.62996674, 0.68659645, -0.41063657, 0.36581245, 0.47554633, -1.14815986, -1.58948040, -0.53358901, 0.00000000, 0.00000000, 0.00000000, 0.00000000
1, 0.8775, 325, 0.94965345, 0.63473463, 0.11269644, -205.93385315, -147.13874817, 320.84106445, -4.91084480, -20.84185982, -74.42268372, 66.05812836, -7.30008221, -73.64470673, 0.69056827, -0.40344870, 0.36873958, 0.47368321, -1.07671940, -1.54128385, -0.51521707, 0.00000000, 0.00000000, 0.00000000, 0.00000000
1, 0.8800, 326, 0.86292350, 0.60439956, 0.09957892, -198.68582153, -142.70664978, 338.36251831, -4.91084480, -20.84185982, -74.42268372, 65.55852509, -8.21787167, -73.62330627, 0.69463694, -0.39624211, 0.37179911, 0.47142038, -1.00586104, -1.50543571, -0.50909418, 0.00000000, 0.00000000, 0.00000000, 0.00000000
1, 0.9125, 327, -0.59669632, 0.22012745, -0.61975831, -124.32518768, -74.80342102, 508.08541870, -14.96638393, -10.78631973, -75.62116241, 59.41078949, -22.55317116, -69.68907928, 0.75445485, -0.30179852, 0.41705680, 0.40715995, 0.21315581, -1.01513183, 0.14979565, 0.00000000, 0.00000000, 0.00000000, 0.00000000
1, 0.9150, 328, -0.78044021, 0.16335380, -0.74171543, -121.05419922, -69.97534180, 511.28750610, -14.96638393, -10.78631973, -75.62116241, 58.89216614, -23.74021339, -69.13964081, 0.75910610, -0.29451263, 0.42047158, 0.40027976, 0.37785000, -0.94709897, 0.26878351, 0.00000000, 0.00000000, 0.00000000, 0.00000000
1, 0.9175, 329, -0.97400683, 0.10570356, -0.86574316, -119.08777618, -64.22630310, 512.40814209, -14.96638393, -10.78631973, -75.62116241, 58.35486984, -24.91746140, -68.55815125, 0.76370585, -0.28725988, 0.42375937, 0.39327255, 0.55269492, -0.87777352, 0.38992369, 0.00000000, 0.00000000, 0.00000000, 0.00000000
1, 0.9200, 330, -1.17076242, 0.03667261, -0.97723013, -119.07298279, -57.68763733, 510.60833740, -18.18181801, -5.46623802, -75.79654694, 57.78941727, -26.08085251, -67.94474030, 0.76826626, -0.27999949, 0.42687467, 0.38619339, 0.73112369, -0.79661351, 0.49847358, 0.00000000, 0.00000000, 0.00000000, 0.00000000
1, 0.9225, 331, -1.36837709, -0.05704217, -1.08225012, -121.44512939, -49.87872314, 505.89614868, -18.18181801, -5.46623802, -75.79654694, 57.19751740, -27.21441650, -67.30200958, 0.77275580, -0.27281460, 0.42974988, 0.37912518, 0.91105580, -0.69045389, 0.60047573, 0.00000000, 0.00000000, 0.00000000, 0.00000000
1, 0.9250, 332, -1.55383778, -0.17070879, -1.16352749, -125.12305450, -41.07302094, 498.68386841, -18.18181801, -5.46623802, -75.79654694, 56.57141495, -28.31468773, -66.62950897, 0.77719086, -0.26567313, 0.43234813, 0.37211192, 1.07952428, -0.56401259, 0.67854178, 0.00000000, 0.00000000, 0.00000000, 0.00000000
1, 0.9275, 333, -1.73773181, -0.29524288, -1.22358990, -129.83175659, -29.80945969, 488.71072388, -18.18181801, -5.46623802, -75.79654694, 55.90702438, -29.37181473, -65.92514038, 0.78158200, -0.25860426, 0.43460566, 0.36520061, 1.24725711, -0.42643449, 0.73510647, 0.00000000, 0.00000000, 0.00000000, 0.00000000
1, 0.9300, 334, -1.91443324, -0.42463443, -1.27689850, -135.55921936, -17.60467911, 475.53634644, -18.18181801, -5.46623802, -75.79654694, 55.20271301, -30.37708282, -65.19155884, 0.78592288, -0.25162899, 0.43648323, 0.35845578, 1.40874469, -0.28380737, 0.78456807, 0.00000000, 0.00000000, 0.00000000, 0.00000000
1, 0.9325, 335, -2.07898402, -0.55505699, -1.32291579, -142.36323547, -6.12324953, 459.27835083, -20.69570351, -0.29231218, -74.94884491, 54.45923615, -31.32448006, -64.43581390, 0.79019433, -0.24475311, 0.43797210, 0.35195082, 1.55910051, -0.14003733, 0.82636321, 0.00000000, 0.00000000, 0.00000000, 0.00000000
1, 0.9350, 336, -2.23669004, -0.68070900, -1.34773397, -149.36471558, 2.76358533, 440.53790283, -20.69570351, -0.29231218, -74.94884491, 53.68215942, -32.21221542, -63.66913986, 0.79436004, -0.23797776, 0.43910730, 0.34575087, 1.70363402, -0.00101441, 0.84663135, 0.00000000, 0.00000000, 0.00000000, 0.00000000
1, 0.9375, 337, -2.38196802, -0.80620223, -1.35375667, -155.85153198, 9.82745075, 419.11337280, -20.69570351, -0.29231218, -74.94884491, 52.87890625, -33.03738022, -62.90195847, 0.79838675, -0.23132493, 0.43991643, 0.33991337, 1.83678210, 0.13776192, 0.84783196, 0.00000000, 0.00000000, 0.00000000, 0.00000000
1, 0.9400, 338, -2.50889397, -0.93277401, -1.34712517, -161.03750610, 15.75602341, 395.78073120, -20.69570351, -0.29231218, -74.94884491, 52.05798721, -33.79802704, -62.14240646, 0.80225074, -0.22482851, 0.44042602, 0.33447111, 1.95262766, 0.27741688, 0.83617121, 0.00000000, 0.00000000, 0.00000000, 0.00000000
1, 0.9425, 339, -2.61917686, -1.05977952, -1.33051395, -164.77732849, 20.47042465, 371.23800659, -20.69570351, -0.29231218, -74.94884491, 51.22821808, -34.49404144, -61.39803314, 0.80593288, -0.21851820, 0.44066894, 0.32944345, 2.05285692, 0.41720670, 0.81439281, 0.00000000, 0.00000000, 0.00000000, 0.00000000
1, 0.9450, 340, -2.78758359, -1.17760170, -1.32158601, -166.70932007, 23.88829422, 346.53189087, -21.60187149, 5.26161957, -74.94884491, 50.39865494, -35.12778091, -60.67496872, 0.80941939, -0.21241966, 0.44068718, 0.32482785, 2.21218228, 0.54743391, 0.80024076, 0.00000000, 0.00000000, 0.00000000, 0.00000000
1, 0.9475, 341, -2.83994722, -1.36641312, -1.30567312, -166.43882751, 26.26406479, 296.90573120, -21.60187149, 5.26161957, -74.94884491, 49.60789871, -35.65421295, -60.02806854, 0.81252468, -0.20680639, 0.44040760, 0.32105443, 2.25705576, 0.74755299, 0.77912879, 0.00000000, 0.00000000, 0.00000000, 0.00000000
1, 0.9500, 342, -2.83994722, -1.36641312, -1.30567312, -166.43882751, 26.26406479, 296.90573120, -21.60187149, 5.26161957, -74.94884491, 48.80458069, -36.17325211, -59.36792374, 0.81558496, -0.20118165, 0.44010362, 0.31726319, 2.24971867, 0.75899434, 0.77400374, 0.00000000, 0.00000000, 0.00000000, 0.00000000
1, 0.9525, 343, -2.91066313, -1.49271250, -1.27397966, -164.20106506, 26.04344559, 250.59509277, -21.60187149, 5.26161957, -74.94884491, 48.05186081, -36.59873962, -58.79104614, 0.81827271, -0.19602995, 0.43959418, 0.31425986, 2.31445646, 0.89560735, 0.73732138, 0.00000000, 0.00000000, 0.00000000, 0.00000000
1, 0.9550, 344, -2.91066313, -1.49271250, -1.27397966, -164.20106506, 26.04344559, 250.59509277, -21.60187149, 5.26161957, -74.94884491, 47.28964615, -37.01805115, -58.20402908, 0.82092506, -0.19086975, 0.43906572, 0.31124294, 2.30859709, 0.90602100, 0.73239952, 0.00000000, 0.00000000, 0.00000000, 0.00000000
1, 0.9575, 345, -2.89736700, -1.57199562, -1.26190114, -165.59492493, 22.14318848, 207.11399841, -21.95264435, 8.91552162, -75.00730896, 46.57671356, -37.35851288, -57.70944214, 0.82321930, -0.18606727, 0.43839979, 0.30902237, 2.29056716, 0.99469680, 0.71553195, 0.00000000, 0.00000000, 0.00000000, 0.00000000
1, 0.9600, 346, -2.86174870, -1.60277379, -1.26452267, -165.45903015, 19.63095474, 186.37719727, -21.95264435, 8.91552162, -75.00730896, 45.88846207, -37.66104889, -57.25845337, 0.82532299, -0.18144272, 0.43768176, 0.30717328, 2.25076056, 1.03438795, 0.71349621, 0.00000000, 0.00000000, 0.00000000, 0.00000000
1, 0.9625, 347, -2.80521226, -1.62354863, -1.27216601, -163.73788452, 16.84006500, 166.68055725, -21.95264435, 8.91552162, -75.00730896, 45.22953033, -37.92907715, -56.85119629, 0.82723808, -0.17701344, 0.43693531, 0.30566490, 2.19052696, 1.06357253, 0.71665835, 0.00000000, 0.00000000, 0.00000000, 0.00000000
1, 0.9650, 348, -2.73645592, -1.63872147, -1.28072643, -160.49832153, 13.14890194, 147.87599182, -21.95264435, 8.91552162, -75.00730896, 44.60524368, -38.16683197, -56.48929596, 0.82895994, -0.17279296, 0.43619382, 0.30447182, 2.11850309, 1.08662748, 0.72097141, 0.00000000, 0.00000000, 0.00000000, 0.00000000
1, 0.9675, 349, -2.66084695, -1.64018273, -1.29165697, -155.08592224, 7.78982162, 130.72024536, -21.95264435, 8.91552162, -75.00730896, 44.02228928, -38.38118744, -56.17410660, 0.83047885, -0.16879432, 0.43551123, 0.30355120, 2.03995657, 1.09542263, 0.72798020, 0.00000000, 0.00000000, 0.00000000, 0.00000000
1, 0.9700, 350, -2.57982159, -1.63322580, -1.30491376, -147.36112976, 1.25101984, 115.07961273, -21.95264435, 8.91552162, -75.00730896, 43.48719025, -38.57827377, -55.90601730, 0.83178759, -0.16503711, 0.43493590, 0.30285782, 1.95623851, 1.09522676, 0.73772675, 0.00000000, 0.00000000, 0.00000000, 0.00000000
1, 0.9725, 351, -2.49531817, -1.61907518, -1.32148910, -137.68855286, -5.78507376, 101.38421631, -22.01110840, 11.13709450, -74.94884491, 43.00314331, -38.76245880, -55.68223572, 0.83289260, -0.16153716, 0.43449315, 0.30234328, 1.86922574, 1.08725715, 0.75124639, 0.00000000, 0.00000000, 0.00000000, 0.00000000
1, 0.9750, 352, -2.41032481, -1.60482025, -1.33659744, -127.14688110, -13.32304001, 89.28779602, -22.01110840, 11.13709450, -74.94884491, 42.57155228, -38.93853378, -55.50094223, 0.83379847, -0.15829161, 0.43420872, 0.30197129, 1.78183866, 1.07861650, 0.76378435, 0.00000000, 0.00000000, 0.00000000, 0.00000000
1, 0.9775, 353, -2.32605648, -1.58839786, -1.34873819, -115.80956268, -21.15803528, 78.93324280, -22.01110840, 11.13709450, -74.94884491, 42.19279480, -39.11061859, -55.35921478, 0.83451396, -0.15529710, 0.43410119, 0.30170414, 1.69523704, 1.06726241, 0.77386028, 0.00000000, 0.00000000, 0.00000000, 0.00000000
1, 0.9800, 354, -2.24460554, -1.56423664, -1.36136591, -104.48010254, -27.83576012, 69.85332489, -22.01110840, 11.13709450, -74.94884491, 41.86380386, -39.27922440, -55.25194931, 0.83506083, -0.15254954, 0.43415523, 0.30151498, 1.61150551, 1.04765177, 0.78489017, 0.00000000, 0.00000000, 0.00000000, 0.00000000
1, 0.9825, 355, -2.16837668, -1.53751659, -1.37406600, -93.15631866, -33.69581604, 61.62379837, -22.01110840, 11.13709450, -74.94884491, 41.58258057, -39.44463348, -55.17573929, 0.83545440, -0.15004657, 0.43436000, 0.30138582, 1.53304458, 1.02498257, 0.79643112, 0.00000000, 0.00000000, 0.00000000, 0.00000000
1, 0.9850, 356, -2.09953380, -1.50928903, -1.38281739, -82.34464264, -38.39232635, 53.97124863, -22.44957542, 13.06635475, -73.34112549, 41.34573364, -39.60590363, -55.12704468, 0.83571279, -0.14778142, 0.43469387, 0.30130729, 1.46203065, 1.00033045, 0.80441356, 0.00000000, 0.00000000, 0.00000000, 0.00000000
1, 0.9875, 357, -2.03456306, -1.47432148, -1.38265944, -72.48315430, -41.16330719, 46.62766647, -22.44957542, 13.06635475, -73.34112549, 41.14809799, -39.76013565, -55.10132217, 0.83586085, -0.14574678, 0.43511730, 0.30127662, 1.39498854, 0.96849239, 0.80379796, 0.00000000, 0.00000000, 0.00000000, 0.00000000
1, 0.9900, 358, -1.97189105, -1.43684101, -1.37842596, -63.78686142, -42.14375305, 39.24223709, -22.44957542, 13.06635475, -73.34112549, 40.98466492, -39.90401459, -55.09513474, 0.83592004, -0.14393382, 0.43559057, 0.30129999, 1.33038807, 0.93372005, 0.79933828, 0.00000000, 0.00000000, 0.00000000, 0.00000000
1, 0.9925, 359, -1.90825808, -1.39725935, -1.37465096, -56.75600433, -41.62191010, 32.23232651, -22.44957542, 13.06635475, -73.34112549, 40.84886551, -40.03542709, -55.10461044, 0.83591330, -0.14231864, 0.43607709, 0.30138177, 1.26499724, 0.89647597, 0.79548663, 0.00000000, 0.00000000, 0.00000000, 0.00000000
1, 0.9950, 360, -1.84535670, -1.35814869, -1.37259245, -51.16905594, -40.28924179, 25.65776443, -22.44957542, 13.06635475, -73.34112549, 40.73546219, -40.15358353, -55.12714386, 0.83585674, -0.14087634, 0.43655467, 0.30152544, 1.20051813, 0.85937917, 0.79344463, 0.00000000, 0.00000000, 0.00000000, 0.00000000
1, 0.9975, 361, -1.78487468, -1.31701016, -1.36695433, -46.73896408, -38.07490540, 19.58852196, -22.30341911, 14.00175381, -73.10727692, 40.63967896, -40.25768661, -55.15977478, 0.83576584, -0.13958685, 0.43700132, 0.30173010, 1.13864851, 0.81997359, 0.78786373, 0.00000000, 0.00000000, 0.00000000, 0.00000000
1, 1.0000, 362, -1.72947550, -1.27617049, -1.35923278, -43.75383377, -34.91237640, 14.02644348, -22.30341911, 14.00175381, -73.10727692, 40.55588531, -40.34678650, -55.19934464, 0.83565784, -0.13842539, 0.43739223, 0.30199757, 1.08206356, 0.78063548, 0.78018010, 0.00000000, 0.00000000, 0.00000000, 0.00000000
1, 1.0025, 363, -1.67637169, -1.23283029, -1.34658062, -41.71049500, -30.79693222, 8.96994305, -22.30341911, 14.00175381, -73.10727692, 40.47964859, -40.41988754, -55.24263382, 0.83554846, -0.13737635, 0.43770567, 0.30232486, 1.02798772, 0.73860252, 0.76749760, 0.00000000, 0.00000000, 0.00000000, 0.00000000
1, 1.0050, 364, -1.62626398, -1.19521511, -1.32997727, -40.53800964, -25.71802330, 3.78947449, -22.30341911, 14.00175381, -73.10727692, 40.40772247, -40.47496033, -55.28796768, 0.83544880, -0.13643150, 0.43791819, 0.30271980, 0.97714859, 0.70211899, 0.75074911, 0.00000000, 0.00000000, 0.00000000, 0.00000000
1, 1.0075, 365, -1.57314754, -1.17071259, -1.29806185, -39.73395538, -19.53686905, -1.23496354, -22.30341911, 14.00175381, -73.10727692, 40.33740997, -40.51017380, -55.33266449, 0.83537191, -0.13559002, 0.43800804, 0.30317995, 0.92356467, 0.67858589, 0.71853322, 0.00000000, 0.00000000, 0.00000000, 0.00000000
1, 1.0100, 366, -1.51854229, -1.15082395, -1.26108766, -39.81471252, -10.72944927, -6.43071795, -21.77725792, 14.64484024, -72.23033905, 40.26317978, -40.52024078, -55.37161636, 0.83534431, -0.13485482, 0.43792105, 0.30370924, 0.86882585, 0.65952218, 0.68100893, 0.00000000, 0.00000000, 0.00000000, 0.00000000
1, 1.0125, 367, -1.46366751, -1.12437332, -1.24454296, -40.04757309, -0.88810444, -11.40213490, -21.77725792, 14.64484024, -72.23033905, 40.18288422, -40.50351715, -55.40212631, 0.83537769, -0.13422798, 0.43763810, 0.30430213, 0.81417298, 0.63376272, 0.66363150, 0.00000000, 0.00000000, 0.00000000, 0.00000000
1, 1.0150, 368, -1.40789998, -1.08536887, -1.23733914, -40.05757523, 8.18485355, -15.82517433, -21.77725792, 14.64484024, -72.23033905, 40.09729767, -40.46237564, -55.42455673, 0.83546776, -0.13370332, 0.43717653, 0.30494893, 0.75895184, 0.59532642, 0.65533900, 0.00000000, 0.00000000, 0.00000000, 0.00000000
1, 1.0175, 369, -1.35621917, -1.04555488, -1.21923912, -39.84449005, 16.42348099, -19.91056252, -21.77725792, 14.64484024, -72.23033905, 40.00763321, -40.39891434, -55.43989563, 0.83560771, -0.13327616, 0.43655375, 0.30564377, 0.70811391, 0.55596185, 0.63592249, 0.00000000, 0.00000000, 0.00000000, 0.00000000
1, 1.0200, 370, -1.30681348, -1.00659323, -1.19381547, -39.77085876, 24.23655319, -23.44174194, -21.77725792, 14.64484024, -72.23033905, 39.91334152, -40.31477356, -55.44778824, 0.83579731, -0.13293636, 0.43577796, 0.30637944, 0.65982729, 0.51735073, 0.60896450, 0.00000000, 0.00000000, 0.00000000, 0.00000000
1, 1.0225, 371, -1.25799000, -0.97209233, -1.16613734, -39.76007080, 31.06974411, -26.35654449, -21.77725792, 14.93715286, -72.46418762, 39.81460571, -40.21291351, -55.44881821, 0.83603126, -0.13266952, 0.43486890, 0.30714768, 0.61236048, 0.48312283, 0.57956171, 0.00000000, 0.00000000, 0.00000000, 0.00000000
1, 1.0250, 372, -1.21520662, -0.94218642, -1.13717282, -39.88059998, 36.57069778, -28.30982018, -21.77725792, 14.93715286, -72.46418762, 39.71146774, -40.09736633, -55.44348526, 0.83630323, -0.13245566, 0.43385234, 0.30793628, 0.57111847, 0.45344257, 0.54871750, 0.00000000, 0.00000000, 0.00000000, 0.00000000
1, 1.0275, 373, -1.17337668, -0.91513795, -1.10641730, -40.21014786, 41.36847305, -29.71242905, -21.77725792, 14.93715286, -72.46418762, 39.60354233, -39.97034073, -55.43198013, 0.83661044, -0.13228104, 0.43274111, 0.30873913, 0.53098589, 0.42659432, 0.51594359, 0.00000000, 0.00000000, 0.00000000, 0.00000000
1, 1.0300, 374, -1.13311112, -0.89517003, -1.07967710, -40.67176437, 44.84169769, -30.64298248, -21.77725792, 14.93715286, -72.46418762, 39.49156952, -39.83512115, -55.41593552, 0.83694386, -0.13212986, 0.43155980, 0.30955267, 0.49253076, 0.40681851, 0.48708141, 0.00000000, 0.00000000, 0.00000000, 0.00000000
1, 1.0325, 375, -1.09745324, -0.87727660, -1.05552554, -41.13064575, 48.03358078, -31.29759789, -21.77725792, 14.93715286, -72.46418762, 39.37556076, -39.69267654, -55.39532471, 0.83730239, -0.13199775, 0.43031433, 0.31037259, 0.45878410, 0.38911724, 0.46071321, 0.00000000, 0.00000000, 0.00000000, 0.00000000
1, 1.0350, 376, -1.06396806, -0.86536729, -1.03488266, -41.51109314, 50.46232605, -31.82294655, -21.68956375, 14.46945286, -72.37649536, 39.25656891, -39.54466248, -55.37147141, 0.83767897, -0.13187972, 0.42901918, 0.31119788, 0.42728859, 0.37740177, 0.43778211, 0.00000000, 0.00000000, 0.00000000, 0.00000000
1, 1.0375, 377, -1.03072190, -0.85480595, -1.01462650, -41.60022736, 52.47504044, -32.14505768, -21.68956375, 14.46945286, -72.37649536, 39.13558197, -39.39221191, -55.34474564, 0.83807063, -0.13177644, 0.42768475, 0.31202334, 0.39609671, 0.36703491, 0.41518503, 0.00000000, 0.00000000, 0.00000000, 0.00000000
1, 1.0400, 378, -1.00147355, -0.84439301, -0.99387568, -41.24974060, 53.45651245, -32.69242096, -21.68956375, 14.46945286, -72.37649536, 39.01542664, -39.23694229, -55.31787109, 0.83846426, -0.13169098, 0.42633194, 0.31285185, 0.36894488, 0.35679919, 0.39207852, 0.00000000, 0.00000000, 0.00000000, 0.00000000
1, 1.0425, 379, -0.94908029, -0.83954525, -0.94600737, -40.02807999, 53.47122574, -32.90603256, -21.68956375, 14.46945286, -72.37649536, 38.89900589, -39.08127213, -55.29197693, 0.83885092, -0.13162962, 0.42498553, 0.31367204, 0.31865835, 0.35209787, 0.34188545, 0.00000000, 0.00000000, 0.00000000, 0.00000000
1, 1.0450, 380, -0.92687637, -0.82135630, -0.92109048, -37.94282913, 53.42036057, -32.84360123, -21.68956375, 14.46945286, -72.37649536, 38.78810120, -38.92575836, -55.26647949, 0.83922935, -0.13160513, 0.42365336, 0.31447107, 0.29856372, 0.33400905, 0.31469464, 0.00000000, 0.00000000, 0.00000000, 0.00000000
1, 1.0475, 381, -0.92687637, -0.82135630, -0.92109048, -37.94282913, 53.42036057, -32.84360123, -21.04647827, 14.44022179, -72.34726715, 38.67752457, -38.77020645, -55.24141693, 0.83960569, -0.13158031, 0.42232010, 0.31526929, 0.30067807, 0.33411604, 0.31242573, 0.00000000, 0.00000000, 0.00000000, 0.00000000
1, 1.0500, 382, -0.88808900, -0.80300343, -0.86773306, -28.06084633, 49.17235184, -34.33229828, -21.04647827, 14.44022179, -72.34726715, 38.59958649, -38.62058640, -55.22896957, 0.83990222, -0.13172071, 0.42112738, 0.31601521, 0.26392889, 0.31557316, 0.25713032, 0.00000000, 0.00000000, 0.00000000, 0.00000000
1, 1.0525, 383, -0.88808900, -0.80300343, -0.86773306, -28.06084633, 49.17235184, -34.33229828, -21.04647827, 14.44022179, -72.34726715, 38.52185059, -38.47095871, -55.21679688, 0.84019721, -0.13186084, 0.41993383, 0.31676048, 0.26597130, 0.31538847, 0.25519639, 0.00000000, 0.00000000, 0.00000000, 0.00000000
1, 1.0550, 384, -0.85477614, -0.78447497, -0.81986064, -21.40971947, 44.41166306, -35.95728302, -21.04647827, 14.44022179, -72.34726715, 38.46931458, -38.32810211, -55.21839142, 0.84041631, -0.13210461, 0.41886792, 0.31748769, 0.23461246, 0.29645842, 0.20566458, 0.00000000, 0.00000000, 0.00000000, 0.00000000
1, 1.0575, 385, -0.83547533, -0.77541006, -0.80265373, -19.30195427, 41.47039795, -37.05315018, -21.04647827, 14.44022179, -72.34726715, 38.42742920, -38.18930435, -55.22868347, 0.84059364, -0.13237646, 0.41786677, 0.31822369, 0.21721387, 0.28691041, 0.18692604, 0.00000000, 0.00000000, 0.00000000, 0.00000000
1, 1.0600, 386, -0.81473750, -0.76590365, -0.79008651, -17.55291367, 38.45544052, -38.07891464, -20.98801422, 14.38175964, -73.48728180, 38.39521790, -38.05482864, -55.24757767, 0.84072983, -0.13266858, 0.41692933, 0.31897071, 0.19832242, 0.27685028, 0.17294860, 0.00000000, 0.00000000, 0.00000000, 0.00000000
