SensorId, TimeStamp (s), FrameNumber, AccX (g), AccY (g), AccZ (g), GyroX (deg/s), GyroY (deg/s), GyroZ (deg/s), MagX (uT), MagY (uT), MagZ (uT), EulerX (deg), EulerY (deg), EulerZ (deg), QuatW, QuatX, QuatY, QuatZ, LinAccX (g), LinAccY (g), LinAccZ (g), Pressure (kPa), Altitude (m), Temperature (degC), HeaveMotion (m)
1, 0.0000, 0, -0.10304645, -0.99323320, -0.07369271, -2.22626376, -6.23282909, -1.06350505, -5.49546909, -25.40192986, -60.83016586, 84.69017029, -7.99330473, -70.89653015, 0.62786567, -0.51752561, 0.43167797, 0.38936645, -0.03601084, 0.00719833, -0.01795021, 0.00000000, 0.00000000, 0.00000000, 0.00000000
1, 0.0025, 1, -0.10183943, -0.99284315, -0.07478900, -1.43509579, -6.29358196, -1.13685489, -5.49546909, -25.40192986, -60.83016586, 84.68881226, -7.99193192, -70.91260529, 0.62781292, -0.51746315, 0.43173909, 0.38946652, -0.03719418, 0.00680721, -0.01687746, 0.00000000, 0.00000000, 0.00000000, 0.00000000
1, 0.0050, 2, -0.10076229, -0.99011672, -0.07597143, -0.57115030, -6.42619658, -1.00159693, -5.49546909, -25.40192986, -60.83016586, 84.68966675, -7.99092197, -70.92900085, 0.62775034, -0.51741022, 0.43181100, 0.38955823, -0.03825387, 0.00407708, -0.01568056, 0.00000000, 0.00000000, 0.00000000, 0.00000000
1, 0.0075, 3, -0.10124844, -0.99011374, -0.07633699, 0.43378189, -6.21237898, -0.79216188, -5.49546909, -25.40192986, -60.83016586, 84.69294739, -7.99038744, -70.94479370, 0.62768018, -0.51737082, 0.43189085, 0.38963512, -0.03775848, 0.00406742, -0.01525864, 0.00000000, 0.00000000, 0.00000000, 0.00000000
1, 0.0100, 4, -0.09883112, -0.98656058, -0.07469898, 1.36971581, -6.34542036, -0.58720481, -4.76468849, -25.92809105, -61.64863968, 84.69860840, -7.99039412, -70.96088409, 0.62759990, -0.51734114, 0.43198270, 0.38970181, -0.04017591, 0.00050521, -0.01679928, 0.00000000, 0.00000000, 0.00000000, 0.00000000
1, 0.0125, 5, -0.09954689, -0.98661089, -0.07139895, 2.08806109, -6.27056694, -0.51859766, -4.76468849, -25.92809105, -61.64863968, 84.70603943, -7.99055386, -70.97676849, 0.62751287, -0.51732135, 0.43208048, 0.38976002, -0.03946283, 0.00054413, -0.01997142, 0.00000000, 0.00000000, 0.00000000, 0.00000000
1, 0.0150, 6, -0.09942795, -0.98369354, -0.06903277, 2.73463225, -6.19748402, -0.37983993, -4.76468849, -25.92809105, -61.64863968, 84.71504974, -7.99103546, -70.99243164, 0.62742031, -0.51730961, 0.43218422, 0.38980934, -0.03959017, -0.00238639, -0.02218236, 0.00000000, 0.00000000, 0.00000000, 0.00000000
1, 0.0175, 7, -0.10172512, -0.98324388, -0.06682163, 3.02053523, -5.98818350, -0.30799618, -4.76468849, -25.92809105, -61.64863968, 84.72470856, -7.99164152, -71.00755310, 0.62732714, -0.51730299, 0.43228841, 0.38985267, -0.03730348, -0.00285000, -0.02422717, 0.00000000, 0.00000000, 0.00000000, 0.00000000
1, 0.0200, 8, -0.10159619, -0.98363805, -0.06499497, 2.87341881, -5.57519913, -0.23197515, -4.76468849, -25.92809105, -61.64863968, 84.73384857, -7.99234343, -71.02162170, 0.62724018, -0.51729709, 0.43238652, 0.38989165, -0.03744453, -0.00246865, -0.02589639, 0.00000000, 0.00000000, 0.00000000, 0.00000000
1, 0.0225, 9, -0.10232695, -0.98277932, -0.06510253, 2.66097665, -5.92669773, -0.02622680, -5.32008171, -24.99269104, -61.18093872, 84.74256897, -7.99363708, -71.03652191, 0.62715399, -0.51728332, 0.43248993, 0.38993379, -0.03673613, -0.00333804, -0.02563842, 0.00000000, 0.00000000, 0.00000000, 0.00000000
1, 0.0250, 10, -0.10268372, -0.98377824, -0.06413951, 2.16032529, -6.21054506, 0.11144080, -5.32008171, -24.99269104, -61.18093872, 84.75013733, -7.99533510, -71.05210876, 0.62707198, -0.51725900, 0.43259454, 0.38998199, -0.03640872, -0.00234699, -0.02647079, 0.00000000, 0.00000000, 0.00000000, 0.00000000
1, 0.0275, 11, -0.10243962, -0.98281467, -0.06265888, 1.65506065, -5.94049215, 0.25663444, -5.32008171, -24.99269104, -61.18093872, 84.75634003, -7.99733210, -71.06697845, 0.62699944, -0.51722866, 0.43269277, 0.39002988, -0.03668733, -0.00331557, -0.02784421, 0.00000000, 0.00000000, 0.00000000, 0.00000000
1, 0.0300, 12, -0.10172220, -0.98180193, -0.06447782, 1.65768695, -6.22073793, 0.46264592, -5.32008171, -24.99269104, -61.18093872, 84.76264191, -7.99990273, -71.08251190, 0.62692595, -0.51719403, 0.43279716, 0.39007810, -0.03744919, -0.00433201, -0.02591620, 0.00000000, 0.00000000, 0.00000000, 0.00000000
1, 0.0325, 13, -0.10111655, -0.98143387, -0.06422903, 1.51413667, -6.22427797, 0.60294735, -5.32008171, -24.99269104, -61.18093872, 84.76859283, -8.00282860, -71.09802246, 0.62685519, -0.51715600, 0.43290198, 0.39012578, -0.03810538, -0.00470245, -0.02606206, 0.00000000, 0.00000000, 0.00000000, 0.00000000
1, 0.0350, 14, -0.10256601, -0.98194617, -0.06325632, 1.87548780, -6.43083000, 0.73884565, -5.11546326, -25.46039200, -60.59631729, 84.77550507, -8.00613403, -71.11402130, 0.62677962, -0.51711994, 0.43301424, 0.39017051, -0.03671308, -0.00419301, -0.02691501, 0.00000000, 0.00000000, 0.00000000, 0.00000000
1, 0.0375, 15, -0.10268380, -0.98220301, -0.06252682, 2.38139200, -6.70747328, 1.01320100, -5.11546326, -25.46039200, -60.59631729, 84.78376770, -8.01018524, -71.13065338, 0.62669802, -0.51708579, 0.43313766, 0.39020982, -0.03666528, -0.00393939, -0.02750137, 0.00000000, 0.00000000, 0.00000000, 0.00000000
1, 0.0400, 16, -0.10400942, -0.98369455, -0.06181376, 3.17125583, -6.56490850, 1.22237265, -5.11546326, -25.46039200, -60.59631729, 84.81407166, -7.97538757, -71.24263000, 0.62607348, -0.51696980, 0.43357256, 0.39088252, -0.03473824, -0.00257939, -0.02770047, 0.00000000, 0.00000000, 0.00000000, 0.00000000
1, 0.0425, 17, -0.10738246, -0.98561305, -0.05768151, 3.88913178, -6.42191601, 1.36184537, -5.11546326, -25.46039200, -60.59631729, 84.82599640, -7.98022938, -71.25846863, 0.62598050, -0.51695526, 0.43370882, 0.39089957, -0.03144888, -0.00066781, -0.03162649, 0.00000000, 0.00000000, 0.00000000, 0.00000000
1, 0.0450, 18, -0.10773407, -0.98735982, -0.05599677, 4.89716053, -6.55648327, 1.70642638, -5.11546326, -25.46039200, -60.59631729, 84.84046936, -7.98595190, -71.27456665, 0.62587774, -0.51695007, 0.43385935, 0.39090386, -0.03119620, 0.00107014, -0.03306074, 0.00000000, 0.00000000, 0.00000000, 0.00000000
1, 0.0475, 19, -0.11026886, -0.98899037, -0.05455017, 6.33978796, -7.03760386, 2.32464767, -5.32008171, -26.10347748, -61.06401443, 84.85871124, -7.99331760, -71.29173279, 0.62575942, -0.51695460, 0.43403572, 0.39089149, -0.02878871, 0.00269032, -0.03419179, 0.00000000, 0.00000000, 0.00000000, 0.00000000
1, 0.0500, 20, -0.11026886, -0.98899037, -0.05455017, 6.33978796, -7.03760386, 2.32464767, -5.32008171, -26.10347748, -61.06401443, 84.87694550, -8.00067902, -71.30890656, 0.62564111, -0.51695913, 0.43421209, 0.39087909, -0.02891593, 0.00267983, -0.03387621, 0.00000000, 0.00000000, 0.00000000, 0.00000000
1, 0.0525, 21, -0.11460213, -0.99301153, -0.04983715, 7.28883457, -8.69826508, 2.78860807, -5.32008171, -26.10347748, -61.06401443, 84.89812469, -8.00956249, -71.33014679, 0.62550026, -0.51695800, 0.43442437, 0.39087003, -0.02473620, 0.00668997, -0.03822271, 0.00000000, 0.00000000, 0.00000000, 0.00000000
1, 0.0550, 22, -0.11460213, -0.99301153, -0.04983715, 7.28883457, -8.69826508, 2.78860807, -5.32008171, -26.10347748, -61.06401443, 84.91931152, -8.01843262, -71.35139465, 0.62535936, -0.51695687, 0.43463662, 0.39086094, -0.02488948, 0.00667894, -0.03785606, 0.00000000, 0.00000000, 0.00000000, 0.00000000
1, 0.0575, 23, -0.11870195, -0.99687397, -0.04756614, 7.93713522, -8.83289433, 2.92454362, -5.32008171, -26.10347748, -61.06401443, 84.94216919, -8.02766991, -71.37294769, 0.62521100, -0.51696211, 0.43485779, 0.39084539, -0.02094932, 0.01052892, -0.03973166, 0.00000000, 0.00000000, 0.00000000, 0.00000000
1, 0.0600, 24, -0.12098527, -0.99999392, -0.04504308, 8.15461636, -9.03969097, 2.99096847, -5.70008755, -25.46039200, -60.85939789, 84.96564484, -8.03710175, -71.39501190, 0.62505877, -0.51696789, 0.43508434, 0.39082918, -0.01882901, 0.01363612, -0.04184860, 0.00000000, 0.00000000, 0.00000000, 0.00000000
1, 0.0625, 25, -0.12026009, -1.00022423, -0.04590347, 8.44476986, -9.31725025, 3.19607687, -5.70008755, -25.46039200, -60.85939789, 84.98992920, -8.04710197, -71.41774750, 0.62490231, -0.51697326, 0.43531945, 0.39081052, -0.01972701, 0.01385397, -0.04056788, 0.00000000, 0.00000000, 0.00000000, 0.00000000
1, 0.0650, 26, -0.11989737, -0.99852258, -0.04441179, 8.58795547, -9.24667168, 3.19656587, -5.70008755, -25.46039200, -60.85939789, 85.01455688, -8.05708027, -71.44029999, 0.62474483, -0.51698107, 0.43555474, 0.39078960, -0.02026215, 0.01213962, -0.04163347, 0.00000000, 0.00000000, 0.00000000, 0.00000000
1, 0.0675, 27, -0.11928354, -0.99976277, -0.04345445, 8.73114300, -9.17608929, 3.19705486, -5.70008755, -25.46039200, -60.85939789, 85.03953552, -8.06703281, -71.46269226, 0.62458640, -0.51699144, 0.43579033, 0.39076656, -0.02104796, 0.01336658, -0.04215886, 0.00000000, 0.00000000, 0.00000000, 0.00000000
1, 0.0700, 28, -0.11965023, -0.99902529, -0.04356461, 8.87652969, -9.38136101, 3.12385583, -5.70008755, -25.46039200, -60.85939789, 85.06494141, -8.07683659, -71.48560333, 0.62442374, -0.51700270, 0.43602908, 0.39074540, -0.02085069, 0.01261515, -0.04160921, 0.00000000, 0.00000000, 0.00000000, 0.00000000
1, 0.0725, 29, -0.11880818, -0.99766243, -0.04403426, 8.65763855, -8.97014713, 3.27002788, -5.81701231, -25.34346581, -61.15171051, 85.08965302, -8.08690548, -71.50746155, 0.62426859, -0.51701301, 0.43626189, 0.39071962, -0.02186674, 0.01124030, -0.04071195, 0.00000000, 0.00000000, 0.00000000, 0.00000000
1, 0.0750, 30, -0.11783069, -0.99890089, -0.04307764, 8.51214504, -8.76377773, 3.27330184, -5.81701231, -25.34346581, -61.15171051, 85.11392975, -8.09693050, -71.52880859, 0.62411708, -0.51702309, 0.43649074, 0.39069289, -0.02301745, 0.01246745, -0.04124838, 0.00000000, 0.00000000, 0.00000000, 0.00000000
1, 0.0775, 31, -0.11832762, -0.99679452, -0.04438855, 8.43795681, -8.48749828, 3.27729058, -5.81701231, -25.34346581, -61.15171051, 85.13793945, -8.10689831, -71.54946136, 0.62396902, -0.51703441, 0.43671519, 0.39066365, -0.02269277, 0.01035041, -0.03952211, 0.00000000, 0.00000000, 0.00000000, 0.00000000
1, 0.0800, 32, -0.11833324, -0.99556023, -0.04473624, 7.93049145, -7.94159460, 3.49617219, -5.81701231, -25.34346581, -61.15171051, 85.16047668, -8.11728859, -71.56869507, 0.62383366, -0.51704127, 0.43693027, 0.39063004, -0.02286668, 0.00910860, -0.03878430, 0.00000000, 0.00000000, 0.00000000, 0.00000000
1, 0.0825, 33, -0.12040301, -0.99347341, -0.04518884, 7.57071924, -7.87791109, 3.63809156, -5.81701231, -25.34346581, -61.15171051, 85.18209839, -8.12800884, -71.58774567, 0.62370414, -0.51704252, 0.43714306, 0.39059722, -0.02098213, 0.00701660, -0.03795720, 0.00000000, 0.00000000, 0.00000000, 0.00000000
1, 0.0850, 34, -0.12124586, -0.99543869, -0.04558380, 7.06607533, -7.74084139, 3.43177962, -5.90470600, -24.55422401, -60.74247360, 85.20240784, -8.13817787, -71.60649872, 0.62357986, -0.51703995, 0.43734729, 0.39057046, -0.02031498, 0.00897753, -0.03721036, 0.00000000, 0.00000000, 0.00000000, 0.00000000
1, 0.0875, 35, -0.12355284, -0.99507028, -0.04630661, 6.41316128, -7.05231094, 3.30337000, -5.90470600, -24.55422401, -60.74247360, 85.22086334, -8.14788055, -71.62355042, 0.62346834, -0.51703560, 0.43753517, 0.39054388, -0.01817564, 0.00860638, -0.03616786, 0.00000000, 0.00000000, 0.00000000, 0.00000000
1, 0.0900, 36, -0.12403426, -0.99617702, -0.04644477, 5.98165846, -7.05414295, 3.16487527, -5.90470600, -24.55422401, -60.74247360, 85.25396729, -8.14139271, -71.68350220, 0.62309462, -0.51701313, 0.43788639, 0.39077625, -0.01758212, 0.00964957, -0.03546114, 0.00000000, 0.00000000, 0.00000000, 0.00000000
1, 0.0925, 37, -0.12608811, -0.99609327, -0.04436192, 5.40267563, -6.57595062, 3.24319220, -5.90470600, -24.55422401, -60.74247360, 85.26971436, -8.15083599, -71.69937897, 0.62299854, -0.51699948, 0.43805844, 0.39075473, -0.01569142, 0.00956679, -0.03727084, 0.00000000, 0.00000000, 0.00000000, 0.00000000
1, 0.0950, 38, -0.12730196, -0.99657661, -0.04534442, 4.89420748, -5.95641422, 3.18331480, -5.90470600, -24.55422401, -60.74247360, 85.28398132, -8.15998936, -71.71370697, 0.62291354, -0.51698482, 0.43821701, 0.39073187, -0.01463576, 0.01005232, -0.03604082, 0.00000000, 0.00000000, 0.00000000, 0.00000000
1, 0.0975, 39, -0.12898736, -0.99881256, -0.04427542, 4.31076145, -4.98916435, 2.98851776, -5.11546326, -25.89885902, -60.18708038, 85.29645538, -8.16846180, -71.72565460, 0.62284267, -0.51697230, 0.43835527, 0.39070633, -0.01309669, 0.01229155, -0.03689326, 0.00000000, 0.00000000, 0.00000000, 0.00000000
1, 0.1000, 40, -0.13117178, -0.99929702, -0.04550033, 4.09338665, -4.78346586, 2.99201775, -5.11546326, -25.89885902, -60.18708038, 85.30831146, -8.17689419, -71.73706818, 0.62277621, -0.51695848, 0.43848884, 0.39068043, -0.01105794, 0.01277995, -0.03546251, 0.00000000, 0.00000000, 0.00000000, 0.00000000
1, 0.1025, 41, -0.13445076, -0.99662215, -0.04447509, 3.73030543, -4.36920071, 2.85894179, -5.11546326, -25.89885902, -60.18708038, 85.31912231, -8.18491173, -71.74748230, 0.62271678, -0.51694459, 0.43861231, 0.39065525, -0.00791747, 0.01010984, -0.03630016, 0.00000000, 0.00000000, 0.00000000, 0.00000000
1, 0.1050, 42, -0.13504821, -0.99859846, -0.04401533, 3.29649615, -4.09408236, 2.72420955, -5.11546326, -25.89885902, -60.18708038, 85.32874298, -8.19253445, -71.75721741, 0.62266362, -0.51692837, 0.43872669, 0.39063281, -0.00745171, 0.01209140, -0.03659256, 0.00000000, 0.00000000, 0.00000000, 0.00000000
1, 0.1075, 43, -0.13879430, -1.00048041, -0.04257010, 3.22508478, -4.16289282, 2.65357018, -5.11546326, -25.89885902, -60.18708038, 85.33822632, -8.19999123, -71.76715088, 0.62261003, -0.51691133, 0.43884066, 0.39061284, -0.00383444, 0.01397860, -0.03787313, 0.00000000, 0.00000000, 0.00000000, 0.00000000
1, 0.1100, 44, -0.14206065, -1.00246048, -0.04271593, 3.07869530, -3.88399005, 2.44801044, -5.52470016, -24.84653664, -60.97632217, 85.34724426, -8.20688152, -71.77642822, 0.62255895, -0.51689661, 0.43894720, 0.39059386, -0.00068711, 0.01596308, -0.03757055, 0.00000000, 0.00000000, 0.00000000, 0.00000000
1, 0.1125, 45, -0.14521270, -1.00307930, -0.04345213, 3.36694860, -4.01538515, 2.16552615, -5.52470016, -24.84653664, -60.97632217, 85.35704041, -8.21309185, -71.78609467, 0.62250102, -0.51688737, 0.43905485, 0.39057750, 0.00235765, 0.01658356, -0.03666450, 0.00000000, 0.00000000, 0.00000000, 0.00000000
1, 0.1150, 46, -0.14944662, -1.00543618, -0.04335734, 3.58400416, -4.21778774, 1.95225179, -5.52470016, -24.84653664, -60.97632217, 85.36746216, -8.21880817, -71.79631042, 0.62243682, -0.51688141, 0.43916470, 0.39056420, 0.00649281, 0.01894009, -0.03657864, 0.00000000, 0.00000000, 0.00000000, 0.00000000
1, 0.1175, 47, -0.15078124, -1.00616419, -0.04446553, 3.79990578, -4.28171587, 1.74085867, -5.52470016, -24.84653664, -60.97632217, 85.37845612, -8.22401333, -71.80673218, 0.62236780, -0.51687986, 0.43927485, 0.39055243, 0.00773755, 0.01966572, -0.03528018, 0.00000000, 0.00000000, 0.00000000, 0.00000000
1, 0.1200, 48, -0.15235099, -1.00813460, -0.04473687, 3.94471598, -4.41774893, 1.66860056, -5.52470016, -24.84653664, -60.97632217, 85.38986206, -8.22906208, -71.81752014, 0.62229526, -0.51687980, 0.43938726, 0.39054179, 0.00922010, 0.02163297, -0.03481147, 0.00000000, 0.00000000, 0.00000000, 0.00000000
1, 0.1225, 49, -0.15173627, -1.00962055, -0.04378330, 4.30705166, -4.82432508, 1.31220269, -5.87547493, -25.84039688, -60.15784836, 85.40232086, -8.23329926, -71.82939148, 0.62221164, -0.51688457, 0.43950424, 0.39053708, 0.00853219, 0.02311218, -0.03554957, 0.00000000, 0.00000000, 0.00000000, 0.00000000
1, 0.1250, 50, -0.14942622, -1.01169753, -0.04394203, 4.37919044, -4.88959503, 1.10126150, -5.87547493, -25.84039688, -60.15784836, 85.41500854, -8.23701859, -71.84149170, 0.62212467, -0.51689178, 0.43962035, 0.39053530, 0.00615788, 0.02518070, -0.03517172, 0.00000000, 0.00000000, 0.00000000, 0.00000000
1, 0.1275, 51, -0.14809287, -1.01132786, -0.04357251, 4.52750397, -5.50479889, 0.67279416, -5.87547493, -25.84039688, -60.15784836, 85.42829132, -8.23979282, -71.85521698, 0.62202650, -0.51689988, 0.43974122, 0.39054480, 0.00477660, 0.02479970, -0.03531189, 0.00000000, 0.00000000, 0.00000000, 0.00000000
1, 0.1300, 52, -0.14566976, -1.01203835, -0.04468812, 4.45493937, -5.43513489, 0.60403591, -5.87547493, -25.84039688, -60.15784836, 85.44137573, -8.24237823, -71.86878204, 0.62192923, -0.51690823, 0.43985975, 0.39055514, 0.00230885, 0.02549875, -0.03397046, 0.00000000, 0.00000000, 0.00000000, 0.00000000
1, 0.1325, 53, -0.14300218, -1.01118124, -0.04358069, 4.67026424, -5.42982483, 0.39358380, -5.87547493, -25.84039688, -60.15784836, 85.45500183, -8.24443436, -71.88237762, 0.62182778, -0.51692158, 0.43997765, 0.39056623, -0.00039425, 0.02462804, -0.03484284, 0.00000000, 0.00000000, 0.00000000, 0.00000000
1, 0.1350, 54, -0.13900420, -1.01018441, -0.04320703, 4.88731956, -5.63222742, 0.18030949, -5.49546909, -25.22654152, -60.15784836, 85.46925354, -8.24599743, -71.89653015, 0.62172014, -0.51693815, 0.44009772, 0.39058039, -0.00441924, 0.02361560, -0.03497087, 0.00000000, 0.00000000, 0.00000000, 0.00000000
1, 0.1375, 55, -0.13598761, -1.00720668, -0.04414519, 5.24892712, -5.90472221, 0.10549241, -5.49546909, -25.22654152, -60.15784836, 85.48449707, -8.24742603, -71.91136932, 0.62160516, -0.51695800, 0.44022372, 0.39059514, -0.00746050, 0.02062070, -0.03376985, 0.00000000, 0.00000000, 0.00000000, 0.00000000
1, 0.1400, 56, -0.13199648, -1.00593984, -0.04547814, 5.68241739, -6.17654562, 0.03044948, -5.49546909, -25.22654152, -60.15784836, 85.51993561, -8.23263836, -71.97181702, 0.62119341, -0.51697844, 0.44054443, 0.39086145, -0.01119619, 0.01926899, -0.03182968, 0.00000000, 0.00000000, 0.00000000, 0.00000000
1, 0.1425, 57, -0.12546426, -1.00076616, -0.04406815, 6.11287308, -6.03733635, 0.24075048, -5.49546909, -25.22654152, -60.15784836, 85.53739166, -8.23441505, -71.98698425, 0.62106842, -0.51700747, 0.44068110, 0.39086753, -0.01775911, 0.01407623, -0.03293870, 0.00000000, 0.00000000, 0.00000000, 0.00000000
1, 0.1450, 58, -0.12364520, -1.00003409, -0.04308309, 6.54505968, -6.10584068, 0.44822913, -5.49546909, -25.22654152, -60.15784836, 85.55594635, -8.23671627, -72.00227356, 0.62093967, -0.51703978, 0.44082472, 0.39086741, -0.01961793, 0.01332510, -0.03360374, 0.00000000, 0.00000000, 0.00000000, 0.00000000
1, 0.1475, 59, -0.12364520, -1.00003409, -0.04308309, 6.54505968, -6.10584068, 0.44822913, -5.49546909, -25.22654152, -60.15784836, 85.57450867, -8.23901176, -72.01756287, 0.62081093, -0.51707208, 0.44096830, 0.39086726, -0.01965757, 0.01330590, -0.03328373, 0.00000000, 0.00000000, 0.00000000, 0.00000000
1, 0.1500, 60, -0.12122399, -0.99734485, -0.04121391, 7.19058323, -5.89538097, 0.65879333, -5.99239969, -24.99269104, -60.15784836, 85.59459686, -8.24178410, -72.03227997, 0.62067866, -0.51711291, 0.44111690, 0.39085567, -0.02212667, 0.01059687, -0.03480636, 0.00000000, 0.00000000, 0.00000000, 0.00000000
1, 0.1525, 61, -0.12122399, -0.99734485, -0.04121391, 7.19058323, -5.89538097, 0.65879333, -5.99239969, -24.99269104, -60.15784836, 85.61468506, -8.24455261, -72.04700470, 0.62054640, -0.51715374, 0.44126546, 0.39084405, -0.02217449, 0.01057720, -0.03445978, 0.00000000, 0.00000000, 0.00000000, 0.00000000
1, 0.1550, 62, -0.12073587, -0.99408484, -0.03688809, 6.90222311, -5.76288700, 0.87135279, -5.99239969, -24.99269104, -60.15784836, 85.63400269, -8.24781990, -72.06134796, 0.62042046, -0.51718968, 0.44141218, 0.39083081, -0.02271906, 0.00729990, -0.03845230, 0.00000000, 0.00000000, 0.00000000, 0.00000000
1, 0.1575, 63, -0.12110473, -0.99236929, -0.03661668, 6.82824802, -5.48880529, 1.01519132, -5.99239969, -24.99269104, -60.15784836, 85.65303040, -8.25138950, -72.07498169, 0.62029910, -0.51722550, 0.44155610, 0.39081320, -0.02241184, 0.00556839, -0.03839526, 0.00000000, 0.00000000, 0.00000000, 0.00000000
1, 0.1600, 64, -0.11927661, -0.99337012, -0.03480278, 6.53909874, -5.28487635, 1.08884168, -5.99239969, -24.99269104, -60.15784836, 85.67126465, -8.25510597, -72.08808136, 0.62018371, -0.51725847, 0.44169566, 0.39079511, -0.02430415, 0.00655454, -0.03989447, 0.00000000, 0.00000000, 0.00000000, 0.00000000
1, 0.1625, 65, -0.12230019, -0.99341208, -0.03284207, 6.39371157, -5.07960558, 1.16204035, -6.69394922, -24.64191818, -60.47939301, 85.68904877, -8.25895596, -72.10066223, 0.62007254, -0.51729047, 0.44183207, 0.39077517, -0.02134706, 0.00658304, -0.04154815, 0.00000000, 0.00000000, 0.00000000, 0.00000000
1, 0.1650, 66, -0.12327519, -0.99097234, -0.03182515, 6.10283184, -4.66796446, 1.23851311, -6.69394922, -24.64191818, -60.47939301, 85.70597076, -8.26291943, -72.11219025, 0.61996919, -0.51732129, 0.44196123, 0.39075229, -0.02044052, 0.00413132, -0.04227293, 0.00000000, 0.00000000, 0.00000000, 0.00000000
1, 0.1675, 67, -0.12375401, -0.99208939, -0.03123028, 5.81299877, -4.39370012, 1.24317944, -6.69394922, -24.64191818, -60.47939301, 85.72206116, -8.26683712, -72.12302399, 0.61987174, -0.51735044, 0.44208419, 0.39072895, -0.02002938, 0.00523740, -0.04258992, 0.00000000, 0.00000000, 0.00000000, 0.00000000
1, 0.1700, 68, -0.12593506, -0.99222428, -0.03110568, 5.59677696, -4.32647657, 1.24479783, -6.69394922, -24.64191818, -60.47939301, 85.73759460, -8.27074718, -72.13368988, 0.61977744, -0.51737726, 0.44220448, 0.39070696, -0.01791583, 0.00536204, -0.04244632, 0.00000000, 0.00000000, 0.00000000, 0.00000000
1, 0.1725, 69, -0.12822142, -0.99399912, -0.02807324, 5.38044930, -4.25815535, 1.17649126, -6.69394922, -24.64191818, -60.47939301, 85.75256348, -8.27446842, -72.14418793, 0.61968565, -0.51740241, 0.44232121, 0.39068720, -0.01569377, 0.00712705, -0.04522021, 0.00000000, 0.00000000, 0.00000000, 0.00000000
1, 0.1750, 70, -0.13209729, -0.99572575, -0.02894711, 5.09130001, -4.05422688, 1.25014162, -6.10932446, -24.43729782, -60.12861633, 85.76672363, -8.27833843, -72.15416718, 0.61959970, -0.51742458, 0.44243348, 0.39066687, -0.01188474, 0.00884533, -0.04410172, 0.00000000, 0.00000000, 0.00000000, 0.00000000
1, 0.1775, 71, -0.13439614, -0.99587506, -0.02784492, 5.01873398, -3.98456240, 1.18138349, -6.10932446, -24.43729782, -60.12861633, 85.78067780, -8.28201962, -72.16398621, 0.61951470, -0.51744705, 0.44254345, 0.39064744, -0.00964949, 0.00898606, -0.04496282, 0.00000000, 0.00000000, 0.00000000, 0.00000000
1, 0.2100, 72, -0.11736757, -0.99142015, -0.04161990, 4.07825661, -3.55150175, -0.48823220, -6.40163708, -24.58345413, -60.47939301, 85.97563934, -8.28674507, -72.33177948, 0.61807668, -0.51783139, 0.44398928, 0.39077547, -0.02675967, 0.00430101, -0.02782854, 0.00000000, 0.00000000, 0.00000000, 0.00000000
1, 0.2125, 73, -0.11399628, -0.98828298, -0.04500030, 4.07479668, -3.13607645, -0.48258772, -5.64162540, -25.16807938, -59.69014740, 85.98697662, -8.28609562, -72.33977509, 0.61799616, -0.51786423, 0.44406086, 0.39077795, -0.03011973, 0.00114840, -0.02425293, 0.00000000, 0.00000000, 0.00000000, 0.00000000
1, 0.2150, 74, -0.11157498, -0.98753244, -0.04511597, 3.92720962, -2.65495324, -0.33570114, -5.64162540, -25.16807938, -59.69014740, 85.99775696, -8.28571987, -72.34651947, 0.61792320, -0.51789778, 0.44412634, 0.39077443, -0.03253454, 0.00038391, -0.02395145, 0.00000000, 0.00000000, 0.00000000, 0.00000000
1, 0.2175, 75, -0.10989054, -0.98371786, -0.04481663, 4.07013941, -2.51843095, -0.12449677, -5.64162540, -25.16807938, -59.69014740, 86.00885773, -8.28584480, -72.35289001, 0.61785173, -0.51793242, 0.44419357, 0.39076513, -0.03422114, -0.00344366, -0.02405960, 0.00000000, 0.00000000, 0.00000000, 0.00000000
1, 0.2200, 76, -0.10771905, -0.98027313, -0.04427955, 4.14039707, -2.31114554, -0.05197553, -5.64162540, -25.16807938, -59.69014740, 86.02005005, -8.28612328, -72.35872650, 0.61778212, -0.51796895, 0.44425943, 0.39075181, -0.03639744, -0.00690114, -0.02440390, 0.00000000, 0.00000000, 0.00000000, 0.00000000
1, 0.2225, 77, -0.10770789, -0.98128772, -0.04209555, 4.28317642, -2.10977936, 0.43986896, -5.64162540, -25.16807938, -59.69014740, 86.03150177, -8.28758240, -72.36396790, 0.61771703, -0.51800442, 0.44432935, 0.39072821, -0.03643382, -0.00589657, -0.02639019, 0.00000000, 0.00000000, 0.00000000, 0.00000000
1, 0.2250, 78, -0.10819840, -0.97957098, -0.04194606, 4.35527134, -2.11130500, 0.57949287, -6.34317446, -25.05115509, -59.74861145, 86.04314423, -8.28939247, -72.36918640, 0.61765230, -0.51803952, 0.44440147, 0.39070204, -0.03597455, -0.00762266, -0.02633877, 0.00000000, 0.00000000, 0.00000000, 0.00000000
1, 0.2275, 79, -0.11183453, -0.97874141, -0.04094834, 4.42873192, -2.25350237, 0.85708481, -6.34317446, -25.05115509, -59.74861145, 86.05501556, -8.29191875, -72.37471008, 0.61758769, -0.51807171, 0.44447929, 0.39067301, -0.03238206, -0.00846005, -0.02713152, 0.00000000, 0.00000000, 0.00000000, 0.00000000
1, 0.2300, 80, -0.11412430, -0.98086590, -0.03926541, 4.64836931, -2.67240620, 1.20038688, -6.34317446, -25.05115509, -59.74861145, 86.06758118, -8.29537201, -72.38123322, 0.61751950, -0.51809996, 0.44456846, 0.39064196, -0.03015193, -0.00634188, -0.02859737, 0.00000000, 0.00000000, 0.00000000, 0.00000000
1, 0.2325, 81, -0.11689940, -0.98214275, -0.03683533, 4.72172403, -2.81350541, 1.40805411, -6.34317446, -25.05115509, -59.74861145, 86.08036804, -8.29936218, -72.38808441, 0.61745077, -0.51812589, 0.44466245, 0.39060894, -0.02744573, -0.00506997, -0.03080635, 0.00000000, 0.00000000, 0.00000000, 0.00000000
1, 0.2350, 82, -0.12222342, -0.98438692, -0.03636999, 4.86743021, -3.02207232, 1.54462993, -6.34317446, -25.05115509, -59.74861145, 86.09359741, -8.30373096, -72.39543152, 0.61737961, -0.51815075, 0.44476211, 0.39057508, -0.02219717, -0.00283051, -0.03104298, 0.00000000, 0.00000000, 0.00000000, 0.00000000
1, 0.2375, 83, -0.12571767, -0.98679078, -0.03273371, 4.86822033, -3.09350681, 1.68353879, -5.70008755, -25.22654152, -59.28091049, 86.10685730, -8.30845547, -72.40293884, 0.61730891, -0.51817364, 0.44486430, 0.39054012, -0.01878452, -0.00043035, -0.03445002, 0.00000000, 0.00000000, 0.00000000, 0.00000000
1, 0.2400, 84, -0.13273831, -0.98928690, -0.03239095, 5.08696175, -3.43987727, 1.81800735, -5.70008755, -25.22654152, -59.28091049, 86.14368439, -8.29711151, -72.45843506, 0.61691761, -0.51820302, 0.44518548, 0.39075348, -0.01156797, 0.00199425, -0.03416020, 0.00000000, 0.00000000, 0.00000000, 0.00000000
1, 0.2425, 85, -0.13527603, -0.99211705, -0.03304007, 5.01544333, -3.50758910, 1.67744267, -5.70008755, -25.22654152, -59.28091049, 86.15746307, -8.30187988, -72.46699524, 0.61684114, -0.51822436, 0.44529441, 0.39072186, -0.00911259, 0.00482059, -0.03327289, 0.00000000, 0.00000000, 0.00000000, 0.00000000
1, 0.2450, 86, -0.13527603, -0.99211705, -0.03304007, 5.01544333, -3.50758910, 1.67744267, -5.70008755, -25.22654152, -59.28091049, 86.17123413, -8.30665493, -72.47554779, 0.61676466, -0.51824564, 0.44540334, 0.39069021, -0.00919506, 0.00481653, -0.03303475, 0.00000000, 0.00000000, 0.00000000, 0.00000000
1, 0.2475, 87, -0.13793766, -0.99215031, -0.03156876, 5.09035921, -3.91794920, 1.39187300, -5.70008755, -25.22654152, -59.28091049, 86.18535614, -8.31077766, -72.48519897, 0.61668086, -0.51826721, 0.44551519, 0.39066631, -0.00660463, 0.00484395, -0.03426198, 0.00000000, 0.00000000, 0.00000000, 0.00000000
1, 0.2500, 88, -0.13793766, -0.99215031, -0.03156876, 5.09035921, -3.91794920, 1.39187300, -5.32008171, -25.19731140, -59.69014740, 86.19948578, -8.31489944, -72.49484253, 0.61659706, -0.51828879, 0.44562703, 0.39064240, -0.00667580, 0.00483811, -0.03401793, 0.00000000, 0.00000000, 0.00000000, 0.00000000
1, 0.2525, 89, -0.14240113, -0.99637794, -0.02966918, 5.45715714, -4.81358147, 1.30858910, -5.32008171, -25.19731140, -59.69014740, 86.21485138, -8.31895733, -72.50675201, 0.61649966, -0.51830846, 0.44575304, 0.39062610, -0.00228241, 0.00905848, -0.03565203, 0.00000000, 0.00000000, 0.00000000, 0.00000000
1, 0.2550, 90, -0.14311120, -0.99923784, -0.02763415, 5.38610935, -4.94943190, 1.09715891, -5.32008171, -25.19731140, -59.69014740, 86.23009491, -8.32251453, -72.51905060, 0.61639994, -0.51832801, 0.44587791, 0.39061493, -0.00163373, 0.01190996, -0.03742371, 0.00000000, 0.00000000, 0.00000000, 0.00000000
1, 0.2575, 91, -0.14297923, -1.00049233, -0.02582067, 5.24097919, -4.81010342, 0.95964259, -5.32008171, -25.19731140, -59.69014740, 86.24493408, -8.32570171, -72.53102875, 0.61630213, -0.51834816, 0.44599819, 0.39060548, -0.00182079, 0.01315558, -0.03898106, 0.00000000, 0.00000000, 0.00000000, 0.00000000
1, 0.2600, 92, -0.14127754, -0.99953419, -0.02348773, 5.24217653, -5.01232386, 0.60719609, -5.32008171, -25.19731140, -59.69014740, 86.25984955, -8.32803535, -72.54355621, 0.61619920, -0.51836997, 0.44611707, 0.39060292, -0.00356278, 0.01218653, -0.04105648, 0.00000000, 0.00000000, 0.00000000, 0.00000000
1, 0.2625, 93, -0.14030531, -0.99832839, -0.02151610, 5.31373835, -5.00835657, 0.39719567, -6.10932446, -25.63577843, -60.01169205, 86.27494812, -8.32984161, -72.55612183, 0.61609381, -0.51839489, 0.44623423, 0.39060256, -0.00456619, 0.01096839, -0.04276759, 0.00000000, 0.00000000, 0.00000000, 0.00000000
1, 0.2650, 94, -0.13909705, -0.99697417, -0.02125345, 5.02394962, -4.79783726, 0.05129707, -6.10932446, -25.63577843, -60.01169205, 86.28926849, -8.33074570, -72.56820679, 0.61599070, -0.51842105, 0.44634211, 0.39060721, -0.00579007, 0.00960040, -0.04278339, 0.00000000, 0.00000000, 0.00000000, 0.00000000
1, 0.2675, 95, -0.13594975, -0.99585158, -0.02136491, 4.87881994, -4.65850735, -0.08621943, -6.10932446, -25.63577843, -60.01169205, 86.30316162, -8.33128452, -72.57996368, 0.61588937, -0.51844770, 0.44644526, 0.39061350, -0.00894667, 0.00846362, -0.04243233, 0.00000000, 0.00000000, 0.00000000, 0.00000000
1, 0.2700, 96, -0.12903275, -0.99476004, -0.01806303, 4.59165716, -4.72823334, -0.22610648, -6.10932446, -25.63577843, -60.01169205, 86.31637573, -8.33148193, -72.59193420, 0.61578947, -0.51847130, 0.44654536, 0.39062530, -0.01586710, 0.00735784, -0.04550654, 0.00000000, 0.00000000, 0.00000000, 0.00000000
1, 0.2725, 97, -0.12431483, -0.99142814, -0.01741070, 4.30276442, -4.59024763, -0.36317134, -6.10932446, -25.63577843, -60.01169205, 86.32881927, -8.33131123, -72.60355377, 0.61569297, -0.51849353, 0.44663957, 0.39064017, -0.02058206, 0.00401175, -0.04594444, 0.00000000, 0.00000000, 0.00000000, 0.00000000
1, 0.2750, 98, -0.12117362, -0.98822129, -0.01712365, 3.86880445, -4.25028515, -0.21726277, -6.10932446, -24.78807259, -59.80707169, 86.34004974, -8.33144760, -72.61430359, 0.61560595, -0.51851141, 0.44672716, 0.39065346, -0.02372563, 0.00079286, -0.04603790, 0.00000000, 0.00000000, 0.00000000, 0.00000000
1, 0.2775, 99, -0.11717312, -0.98638678, -0.01514859, 3.65294647, -4.25010300, -0.35643497, -6.10932446, -24.78807259, -59.80707169, 86.35074615, -8.33123875, -72.62508392, 0.61552018, -0.51852769, 0.44681135, 0.39067072, -0.02772253, -0.00105393, -0.04782876, 0.00000000, 0.00000000, 0.00000000, 0.00000000
1, 0.2800, 100, -0.11123227, -0.98563725, -0.01404951, 3.43982148, -4.53126383, -0.21967068, -6.10932446, -24.78807259, -59.80707169, 86.36100006, -8.33141041, -72.63654327, 0.61543524, -0.51853740, 0.44689903, 0.39069140, -0.03366634, -0.00181419, -0.04875104, 0.00000000, 0.00000000, 0.00000000, 0.00000000
1, 0.2825, 101, -0.10881181, -0.98451978, -0.01403736, 3.22150636, -4.18928814, -0.07443972, -6.10932446, -24.78807259, -59.80707169, 86.37058258, -8.33188820, -72.64711761, 0.61535734, -0.51854569, 0.44698188, 0.39070839, -0.03609506, -0.00294107, -0.04859789, 0.00000000, 0.00000000, 0.00000000, 0.00000000
1, 0.2850, 102, -0.10662176, -0.98539078, -0.01258881, 3.22240233, -4.26182127, 0.13439406, -6.10932446, -24.78807259, -59.80707169, 86.38020325, -8.33289242, -72.65784454, 0.61528045, -0.51855135, 0.44706810, 0.39072338, -0.03830244, -0.00207794, -0.04988059, 0.00000000, 0.00000000, 0.00000000, 0.00000000
1, 0.2875, 103, -0.10601354, -0.98539668, -0.01197916, 3.15073419, -4.26468992, 0.27446961, -6.10932446, -24.78807259, -59.80707169, 86.38962555, -8.33425140, -72.66854858, 0.61520553, -0.51855463, 0.44715530, 0.39073721, -0.03893407, -0.00207901, -0.05032749, 0.00000000, 0.00000000, 0.00000000, 0.00000000
1, 0.2900, 104, -0.10613346, -0.98576599, -0.01198456, 3.00383067, -3.85390282, 0.49034029, -5.64162540, -25.72347260, -59.42706680, 86.44782257, -8.27074337, -72.84075165, 0.61415333, -0.51845533, 0.44782507, 0.39175570, -0.03771739, -0.00193208, -0.04932903, 0.00000000, 0.00000000, 0.00000000, 0.00000000
1, 0.2925, 105, -0.10505366, -0.98450398, -0.01392261, 3.07786822, -4.06533813, 0.76699167, -5.64162540, -25.72347260, -59.42706680, 86.45697021, -8.27328777, -72.85088348, 0.61408538, -0.51845431, 0.44791454, 0.39176133, -0.03884115, -0.00319749, -0.04723292, 0.00000000, 0.00000000, 0.00000000, 0.00000000
1, 0.2950, 106, -0.10722785, -0.98539358, -0.01258761, 3.07635140, -3.85982251, 0.90966356, -5.64162540, -25.72347260, -59.42706680, 86.46604156, -8.27614975, -72.86048126, 0.61402059, -0.51845366, 0.44800282, 0.39176273, -0.03671639, -0.00231046, -0.04841099, 0.00000000, 0.00000000, 0.00000000, 0.00000000
1, 0.2975, 107, -0.10843186, -0.98603815, -0.01088425, 3.07746077, -3.93455291, 1.25834692, -5.64162540, -25.72347260, -59.42706680, 86.47514343, -8.27989292, -72.87020111, 0.61395806, -0.51844901, 0.44809607, 0.39176029, -0.03557704, -0.00166613, -0.04995693, 0.00000000, 0.00000000, 0.00000000, 0.00000000
1, 0.3000, 108, -0.11013570, -0.98674530, -0.01357993, 3.14934254, -3.93388152, 1.25812101, -5.64162540, -25.72347260, -59.42706680, 86.48442841, -8.28363609, -72.87992859, 0.61389470, -0.51844531, 0.44818991, 0.39175713, -0.03393783, -0.00095946, -0.04710068, 0.00000000, 0.00000000, 0.00000000, 0.00000000
1, 0.3025, 109, -0.11376183, -0.98922735, -0.01312171, 3.14793229, -3.72946429, 1.47071791, -5.70008755, -24.90499878, -59.13475418, 86.49362183, -8.28787708, -72.88909912, 0.61383522, -0.51844120, 0.44828340, 0.39174885, -0.03038497, 0.00152355, -0.04739984, 0.00000000, 0.00000000, 0.00000000, 0.00000000
1, 0.3050, 110, -0.11787494, -0.99230891, -0.01389365, 3.43866134, -4.07626152, 1.67488527, -5.70008755, -24.90499878, -59.13475418, 86.50366211, -8.29267311, -72.89912415, 0.61377072, -0.51843607, 0.44838631, 0.39173889, -0.02635468, 0.00460655, -0.04645394, 0.00000000, 0.00000000, 0.00000000, 0.00000000
1, 0.3075, 111, -0.12138924, -0.99487340, -0.01624746, 3.51259255, -4.28659821, 1.88161182, -5.70008755, -24.90499878, -59.13475418, 86.51396179, -8.29802132, -72.90964508, 0.61370510, -0.51842803, 0.44849500, 0.39172781, -0.02293274, 0.00717360, -0.04392176, 0.00000000, 0.00000000, 0.00000000, 0.00000000
1, 0.3100, 112, -0.12465087, -0.99711496, -0.01529752, 3.80127239, -4.42238760, 1.87882686, -5.70008755, -24.90499878, -59.13475418, 86.52503967, -8.30338001, -72.92050934, 0.61363488, -0.51842278, 0.44860795, 0.39171547, -0.01976366, 0.00941712, -0.04468001, 0.00000000, 0.00000000, 0.00000000, 0.00000000
1, 0.3125, 113, -0.12865053, -0.99834710, -0.01640797, 4.23497534, -4.69640779, 1.94363391, -5.70008755, -24.90499878, -59.13475418, 86.53729248, -8.30894089, -72.93205261, 0.61355764, -0.51842034, 0.44872898, 0.39170110, -0.01586004, 0.01065034, -0.04335744, 0.00000000, 0.00000000, 0.00000000, 0.00000000
1, 0.3150, 114, -0.13192201, -1.00042748, -0.01814388, 4.45130301, -4.76472902, 2.01194048, -5.90470600, -24.43729782, -58.25782013, 86.55012512, -8.31467533, -72.94377136, 0.61347777, -0.51841956, 0.44885355, 0.39168447, -0.01268760, 0.01273179, -0.04139947, 0.00000000, 0.00000000, 0.00000000, 0.00000000
1, 0.3175, 115, -0.13495323, -1.00152862, -0.01949870, 4.52203131, -4.62558270, 2.01359630, -5.90470600, -24.43729782, -58.25782013, 86.56306458, -8.32039547, -72.95512390, 0.61339855, -0.51842082, 0.44897687, 0.39166555, -0.00975516, 0.01383388, -0.03982062, 0.00000000, 0.00000000, 0.00000000, 0.00000000
1, 0.3200, 116, -0.14078617, -1.00137556, -0.02351693, 4.59312344, -4.55347633, 1.87446105, -5.90470600, -24.43729782, -58.25782013, 86.57616425, -8.32575703, -72.96632385, 0.61331803, -0.51842499, 0.44909826, 0.39164698, -0.00401479, 0.01368082, -0.03557571, 0.00000000, 0.00000000, 0.00000000, 0.00000000
1, 0.3225, 117, -0.14163506, -1.00234711, -0.02462984, 4.73908710, -4.82798624, 1.80032158, -5.90470600, -24.43729782, -58.25782013, 86.58974457, -8.33096600, -72.97823334, 0.61323249, -0.51842952, 0.44922373, 0.39163107, -0.00325586, 0.01465166, -0.03422799, 0.00000000, 0.00000000, 0.00000000, 0.00000000
1, 0.3250, 118, -0.14539611, -1.00428951, -0.02758461, 4.66893530, -5.03637028, 1.79772520, -5.90470600, -24.43729782, -58.25782013, 86.60321808, -8.33620548, -72.99066162, 0.61314571, -0.51843131, 0.44935134, 0.39161822, 0.00041472, 0.01659346, -0.03104025, 0.00000000, 0.00000000, 0.00000000, 0.00000000
1, 0.3275, 119, -0.14733328, -1.00757885, -0.03031935, 4.74338055, -5.37859058, 1.58302093, -5.20315695, -24.87576675, -58.37474442, 86.61701202, -8.34094906, -73.00399780, 0.61305285, -0.51843333, 0.44948173, 0.39161137, 0.00226995, 0.01988066, -0.02806695, 0.00000000, 0.00000000, 0.00000000, 0.00000000
1, 0.3300, 120, -0.14816879, -1.01139140, -0.03049820, 4.81908655, -5.86038494, 1.43636024, -5.20315695, -24.87576675, -58.37474442, 86.63117218, -8.34539890, -73.01856232, 0.61295313, -0.51843357, 0.44961748, 0.39161113, 0.00302863, 0.02369010, -0.02764335, 0.00000000, 0.00000000, 0.00000000, 0.00000000
1, 0.3325, 121, -0.14924979, -1.01398110, -0.03029124, 4.96137619, -5.71727085, 1.22801542, -5.20315695, -24.87576675, -58.37474442, 86.64563751, -8.34930325, -73.03279877, 0.61285144, -0.51843899, 0.44975019, 0.39161071, 0.00404221, 0.02627499, -0.02760041, 0.00000000, 0.00000000, 0.00000000, 0.00000000
1, 0.3350, 122, -0.14912808, -1.01495159, -0.03116172, 5.32082748, -5.77765942, 0.87632138, -5.20315695, -24.87576675, -58.37474442, 86.66104126, -8.35233021, -73.04724121, 0.61274207, -0.51845223, 0.44988281, 0.39161214, 0.00386821, 0.02723765, -0.02646394, 0.00000000, 0.00000000, 0.00000000, 0.00000000
1, 0.3375, 123, -0.14790943, -1.01666844, -0.03106831, 5.60987139, -5.98048878, 0.73274612, -5.20315695, -24.87576675, -58.37474442, 86.67723846, -8.35502529, -73.06222534, 0.61262614, -0.51846892, 0.45001897, 0.39161494, 0.00260304, 0.02894504, -0.02627768, 0.00000000, 0.00000000, 0.00000000, 0.00000000
1, 0.3400, 124, -0.14427853, -1.01553822, -0.03154723, 5.82434464, -5.96639109, -0.03710479, -5.37854433, -26.33732796, -58.63782501, 86.70841217, -8.34933949, -73.09821320, 0.61234397, -0.51851755, 0.45026091, 0.39171371, -0.00092970, 0.02776945, -0.02526220, 0.00000000, 0.00000000, 0.00000000, 0.00000000
1, 0.3425, 125, -0.14427853, -1.01553822, -0.03154723, 5.82434464, -5.96639109, -0.03710479, -5.37854433, -26.33732796, -58.63782501, 86.72515106, -8.35010242, -73.11325836, 0.61221915, -0.51854467, 0.45038989, 0.39172444, -0.00094286, 0.02775478, -0.02497347, 0.00000000, 0.00000000, 0.00000000, 0.00000000
1, 0.3450, 126, -0.13761562, -1.01209879, -0.02918647, 5.81426525, -4.84980202, -0.58145154, -5.37854433, -26.33732796, -58.63782501, 86.74147797, -8.34933758, -73.12557983, 0.61210072, -0.51858664, 0.45049778, 0.39172995, -0.00759256, 0.02429736, -0.02705283, 0.00000000, 0.00000000, 0.00000000, 0.00000000
1, 0.3475, 127, -0.13761562, -1.01209879, -0.02918647, 5.81426525, -4.84980202, -0.58145154, -5.37854433, -26.33732796, -58.63782501, 86.75781250, -8.34857082, -73.13789368, 0.61198229, -0.51862860, 0.45060563, 0.39173543, -0.00757933, 0.02427936, -0.02677144, 0.00000000, 0.00000000, 0.00000000, 0.00000000
1, 0.3500, 128, -0.13047692, -1.00643933, -0.02715929, 5.30432415, -4.08849478, -0.84922183, -5.37854433, -26.33732796, -58.63782501, 86.77258301, -8.34702873, -73.14833069, 0.61187482, -0.51867282, 0.45069593, 0.39174089, -0.01469138, 0.01860160, -0.02854408, 0.00000000, 0.00000000, 0.00000000, 0.00000000
1, 0.3525, 129, -0.12636600, -1.00237978, -0.02600578, 5.15814877, -3.81178904, -0.91493195, -6.08009338, -24.90499878, -58.87167358, 86.78688812, -8.34528160, -73.15808105, 0.61177117, -0.51871806, 0.45078054, 0.39174551, -0.01877214, 0.01452374, -0.02945124, 0.00000000, 0.00000000, 0.00000000, 0.00000000
1, 0.3550, 130, -0.12431659, -0.99929571, -0.02608496, 4.65130329, -3.39886689, -1.04755640, -6.08009338, -24.90499878, -58.87167358, 86.79978943, -8.34313583, -73.16679382, 0.61167616, -0.51876146, 0.45085379, 0.39175221, -0.02078450, 0.01142192, -0.02914995, 0.00000000, 0.00000000, 0.00000000, 0.00000000
1, 0.3575, 131, -0.12008698, -0.99570978, -0.02616093, 4.29084921, -3.26484752, -0.97462076, -6.08009338, -24.90499878, -58.87167358, 86.81173706, -8.34115791, -73.17517853, 0.61158711, -0.51880044, 0.45092303, 0.39175996, -0.02497996, 0.00781942, -0.02886826, 0.00000000, 0.00000000, 0.00000000, 0.00000000
1, 0.3600, 132, -0.11596097, -0.99437678, -0.02346062, 3.85977221, -3.27107334, -0.83341593, -6.08009338, -24.90499878, -58.87167358, 86.82260132, -8.33953094, -73.18354034, 0.61150408, -0.51883221, 0.45099023, 0.39177012, -0.02907787, 0.00647187, -0.03138140, 0.00000000, 0.00000000, 0.00000000, 0.00000000
1, 0.3625, 133, -0.11462210, -0.99306029, -0.02051047, 3.42743587, -3.13772535, -0.76025450, -6.08009338, -24.90499878, -58.87167358, 86.83233643, -8.33806610, -73.19156647, 0.61142790, -0.51885855, 0.45105278, 0.39178208, -0.03039145, 0.00514233, -0.03416401, 0.00000000, 0.00000000, 0.00000000, 0.00000000
1, 0.3650, 134, -0.11449313, -0.99418151, -0.01942813, 2.99336934, -2.79666471, -0.68427086, -6.25548077, -24.46652985, -58.55013275, 86.84085846, -8.33674526, -73.19871521, 0.61136067, -0.51888132, 0.45110795, 0.39179340, -0.03049760, 0.00625211, -0.03509960, 0.00000000, 0.00000000, 0.00000000, 0.00000000
1, 0.3675, 135, -0.11328012, -0.99417931, -0.01918618, 2.77909112, -2.93935108, -0.54562503, -6.25548077, -24.46652985, -58.55013275, 86.84888458, -8.33579254, -73.20621490, 0.61129564, -0.51889861, 0.45116472, 0.39180660, -0.03169410, 0.00623983, -0.03520321, 0.00000000, 0.00000000, 0.00000000, 0.00000000
1, 0.3700, 136, -0.11316198, -0.99247020, -0.01830488, 2.85302234, -3.14968824, -0.33889869, -6.25548077, -24.46652985, -58.55013275, 86.85717773, -8.33537579, -73.21420288, 0.61122942, -0.51891303, 0.45122728, 0.39181870, -0.03180512, 0.00452191, -0.03594164, 0.00000000, 0.00000000, 0.00000000, 0.00000000
1, 0.3725, 137, -0.11364812, -0.99270964, -0.01891853, 2.85208201, -3.01341009, -0.19716746, -6.25548077, -24.46652985, -58.55013275, 86.86540985, -8.33529377, -73.22183228, 0.61116576, -0.51892728, 0.45128959, 0.39182737, -0.03131755, 0.00475335, -0.03518591, 0.00000000, 0.00000000, 0.00000000, 0.00000000
1, 0.3750, 138, -0.11680704, -0.99245244, -0.02074109, 2.85124826, -2.87823057, 0.01448858, -6.25548077, -24.46652985, -58.55013275, 86.87359619, -8.33572197, -73.22909546, 0.61110526, -0.51894057, 0.45135251, 0.39183170, -0.02816602, 0.00448948, -0.03322224, 0.00000000, 0.00000000, 0.00000000, 0.00000000
1, 0.3775, 139, -0.11778796, -0.99107885, -0.02255101, 3.21270561, -3.08588123, 0.22031164, -5.90470600, -24.14498711, -58.49166870, 86.88275146, -8.33669472, -73.23684692, 0.61104035, -0.51895481, 0.45142356, 0.39183199, -0.02720189, 0.00310981, -0.03125431, 0.00000000, 0.00000000, 0.00000000, 0.00000000
1, 0.3800, 140, -0.11960535, -0.99109083, -0.02230308, 3.28433037, -3.01926804, 0.43080109, -5.90470600, -24.14498711, -58.49166870, 86.89205933, -8.33817482, -73.24440002, 0.61097711, -0.51896858, 0.45149675, 0.39182809, -0.02541007, 0.00311679, -0.03134152, 0.00000000, 0.00000000, 0.00000000, 0.00000000
1, 0.3825, 141, -0.12214957, -0.99195606, -0.02279990, 3.50170541, -3.22496629, 0.42730132, -5.90470600, -24.14498711, -58.49166870, 86.90198517, -8.33968258, -73.25248718, 0.61090934, -0.51898342, 0.45157450, 0.39182442, -0.02289183, 0.00397658, -0.03067338, 0.00000000, 0.00000000, 0.00000000, 0.00000000
1, 0.3850, 142, -0.12589604, -0.99516928, -0.02284142, 3.57563639, -3.43530297, 0.63402778, -5.90470600, -24.14498711, -58.49166870, 86.91216278, -8.34172726, -73.26106262, 0.61084050, -0.51899552, 0.45165810, 0.39181972, -0.01918073, 0.00718534, -0.03045599, 0.00000000, 0.00000000, 0.00000000, 0.00000000
1, 0.3875, 143, -0.13097075, -0.99840951, -0.02141427, 3.79232788, -3.57066536, 0.56154394, -5.90470600, -24.14498711, -58.49166870, 86.92293549, -8.34360886, -73.26998901, 0.61076719, -0.51900995, 0.45174441, 0.39181525, -0.01413853, 0.01042032, -0.03169715, 0.00000000, 0.00000000, 0.00000000, 0.00000000
1, 0.3900, 144, -0.13666004, -1.00258720, -0.02342173, 4.22765446, -4.05129957, 0.55360365, -5.20315695, -24.08652496, -58.93013763, 86.95783997, -8.32963943, -73.32448578, 0.61037797, -0.51903862, 0.45204344, 0.39203891, -0.00820799, 0.01453060, -0.02908972, 0.00000000, 0.00000000, 0.00000000, 0.00000000
1, 0.3925, 145, -0.14028400, -1.00556266, -0.02284887, 4.73270607, -4.31915522, 0.26856026, -5.20315695, -24.08652496, -58.93013763, 86.97124481, -8.33088303, -73.33535004, 0.61028409, -0.51906204, 0.45214447, 0.39203757, -0.00460549, 0.01749695, -0.02943120, 0.00000000, 0.00000000, 0.00000000, 0.00000000
1, 0.3950, 146, -0.14197630, -1.00643790, -0.02237002, 5.23865366, -4.65954447, 0.19235073, -5.20315695, -24.08652496, -58.93013763, 86.98603058, -8.33198071, -73.34707642, 0.61018050, -0.51909000, 0.45225349, 0.39203611, -0.00293215, 0.01836145, -0.02965489, 0.00000000, 0.00000000, 0.00000000, 0.00000000
1, 0.4025, 147, -0.14342007, -1.00927508, -0.02216610, 6.10283852, -4.98449278, -0.65416133, -5.43700647, -25.69424057, -58.49166870, 87.03552246, -8.33127308, -73.38395691, 0.60982782, -0.51921076, 0.45258644, 0.39204061, -0.00147616, 0.02115232, -0.02900541, 0.00000000, 0.00000000, 0.00000000, 0.00000000
1, 0.4050, 148, -0.13943416, -1.00641215, -0.02335241, 6.17696381, -5.32341766, -1.07864010, -5.43700647, -25.69424057, -58.49166870, 87.05293274, -8.32926559, -73.39752197, 0.60969603, -0.51925808, 0.45269790, 0.39205426, -0.00542741, 0.01826883, -0.02751908, 0.00000000, 0.00000000, 0.00000000, 0.00000000
1, 0.4075, 149, -0.13471398, -1.00599706, -0.02506648, 5.95722008, -4.90341520, -1.49186707, -5.43700647, -25.69424057, -58.49166870, 87.06964874, -8.32617188, -73.41009521, 0.60956740, -0.51931006, 0.45279717, 0.39207083, -0.01009414, 0.01783121, -0.02551724, 0.00000000, 0.00000000, 0.00000000, 0.00000000
1, 0.4100, 150, -0.13084620, -1.00484324, -0.02713410, 5.88491201, -4.89969254, -1.77134073, -5.43700647, -25.69424057, -58.49166870, 87.08618164, -8.32237434, -73.42268372, 0.60943711, -0.51936388, 0.45289254, 0.39209169, -0.01389635, 0.01665318, -0.02316489, 0.00000000, 0.00000000, 0.00000000, 0.00000000
1, 0.4125, 151, -0.12432198, -1.00206006, -0.03052638, 5.81303072, -4.90036440, -1.77111483, -5.43700647, -25.69424057, -58.49166870, 87.10254669, -8.31857109, -73.43527222, 0.60930771, -0.51941681, 0.45298737, 0.39211333, -0.02035490, 0.01384604, -0.01949097, 0.00000000, 0.00000000, 0.00000000, 0.00000000
1, 0.4150, 152, -0.12034424, -0.99819475, -0.03304150, 5.73909950, -4.69002724, -1.97784126, -6.08009338, -25.43115997, -58.55013275, 87.11864471, -8.31422043, -73.44735718, 0.60917938, -0.51947254, 0.45307639, 0.39213604, -0.02425752, 0.00995577, -0.01669873, 0.00000000, 0.00000000, 0.00000000, 0.00000000
1, 0.4175, 153, -0.11452760, -0.99682778, -0.03217710, 5.88390923, -4.82606125, -2.05009913, -6.08009338, -25.43115997, -58.55013275, 87.13514709, -8.30971050, -73.45979309, 0.60904747, -0.51952970, 0.45316765, 0.39215982, -0.02999627, 0.00856322, -0.01727901, 0.00000000, 0.00000000, 0.00000000, 0.00000000
1, 0.4200, 154, -0.10859446, -0.99532002, -0.03253276, 6.09897757, -4.75480986, -2.04983592, -6.08009338, -25.43115997, -58.55013275, 87.15216827, -8.30518246, -73.47204590, 0.60891378, -0.51959032, 0.45325977, 0.39218065, -0.03585120, 0.00702942, -0.01663040, 0.00000000, 0.00000000, 0.00000000, 0.00000000
1, 0.4225, 155, -0.10654458, -0.99272233, -0.03298598, 6.38498688, -4.54660749, -1.90806758, -6.08009338, -25.43115997, -58.55013275, 87.16981506, -8.30098438, -73.48376465, 0.60878009, -0.51965505, 0.45335311, 0.39219433, -0.03782856, 0.00440603, -0.01587317, 0.00000000, 0.00000000, 0.00000000, 0.00000000
1, 0.4250, 156, -0.10121972, -0.98999697, -0.03271077, 6.81497288, -4.33926058, -1.62690091, -6.08009338, -25.43115997, -58.55013275, 87.18846893, -8.29745674, -73.49491119, 0.60864598, -0.51972455, 0.45345062, 0.39219773, -0.04309252, 0.00165588, -0.01582715, 0.00000000, 0.00000000, 0.00000000, 0.00000000
1, 0.4275, 157, -0.09867987, -0.98717546, -0.03145080, 7.31982994, -4.47852802, -1.28073907, -6.08009338, -25.43115997, -58.55013275, 87.20841980, -8.29480362, -73.50636292, 0.60850775, -0.51979613, 0.45355821, 0.39219311, -0.04558658, -0.00118923, -0.01674329, 0.00000000, 0.00000000, 0.00000000, 0.00000000
1, 0.4300, 158, -0.09710879, -0.98630083, -0.03192942, 7.67919445, -4.41142654, -0.93130332, -5.58316278, -24.55422401, -58.28704834, 87.22923279, -8.29301548, -73.51761627, 0.60836899, -0.51986951, 0.45367187, 0.39217946, -0.04712675, -0.00208575, -0.01590570, 0.00000000, 0.00000000, 0.00000000, 0.00000000
1, 0.4325, 159, -0.09649760, -0.98595536, -0.03009242, 8.04065037, -4.61907673, -0.72548032, -5.58316278, -24.55422401, -58.28704834, 87.25102997, -8.29175949, -73.52935791, 0.60822588, -0.51994383, 0.45379373, 0.39216191, -0.04771623, -0.00245249, -0.01736694, 0.00000000, 0.00000000, 0.00000000, 0.00000000
1, 0.4350, 160, -0.10388067, -0.98712552, -0.02801786, 8.11180592, -4.48432398, -0.44412524, -5.58316278, -24.55422401, -58.28704834, 87.27294922, -8.29118824, -73.54073334, 0.60808563, -0.52001750, 0.45391762, 0.39213836, -0.04032329, -0.00130188, -0.01906337, 0.00000000, 0.00000000, 0.00000000, 0.00000000
1, 0.4375, 161, -0.10725182, -0.99268615, -0.02711850, 8.25840950, -4.76542473, -0.09871571, -5.58316278, -24.55422401, -58.28704834, 87.29533386, -8.29150677, -73.55277252, 0.60794389, -0.52008724, 0.45405039, 0.39211196, -0.03695765, 0.00424123, -0.01957655, 0.00000000, 0.00000000, 0.00000000, 0.00000000
1, 0.4400, 162, -0.10725182, -0.99268615, -0.02711850, 8.25840950, -4.76542473, -0.09871571, -5.58316278, -24.55422401, -58.28704834, 87.32987976, -8.25875568, -73.63794708, 0.60738957, -0.52006775, 0.45439863, 0.39259320, -0.03639200, 0.00413120, -0.01898441, 0.00000000, 0.00000000, 0.00000000, 0.00000000
1, 0.4425, 163, -0.11281388, -0.99761468, -0.02816014, 8.26524162, -5.46878529, 0.59112531, -5.49546909, -24.70038033, -58.78398132, 87.35252380, -8.26086712, -73.65167999, 0.60724664, -0.52012461, 0.45454860, 0.39256549, -0.03086636, 0.00904679, -0.01755195, 0.00000000, 0.00000000, 0.00000000, 0.00000000
1, 0.4450, 164, -0.11281388, -0.99761468, -0.02816014, 8.26524162, -5.46878529, 0.59112531, -5.49546909, -24.70038033, -58.78398132, 87.37516022, -8.26296902, -73.66541290, 0.60710365, -0.52018142, 0.45469853, 0.39253774, -0.03090272, 0.00903410, -0.01716111, 0.00000000, 0.00000000, 0.00000000, 0.00000000
1, 0.4475, 165, -0.11960363, -0.99945694, -0.03049619, 8.33628845, -5.33293438, 0.80255544, -5.49546909, -24.70038033, -58.78398132, 87.39791870, -8.26558399, -73.67877960, 0.60696298, -0.52023816, 0.45484966, 0.39250493, -0.02415811, 0.01086503, -0.01443203, 0.00000000, 0.00000000, 0.00000000, 0.00000000
1, 0.4500, 166, -0.12481591, -1.00032949, -0.03135426, 8.40723038, -5.19598436, 0.94406086, -5.49546909, -24.70038033, -58.78398132, 87.42080688, -8.26852512, -73.69178009, 0.60682404, -0.52029562, 0.45500112, 0.39246792, -0.01899663, 0.01172704, -0.01317867, 0.00000000, 0.00000000, 0.00000000, 0.00000000
1, 0.4525, 167, -0.12893382, -1.00133193, -0.03136117, 8.69612312, -5.33397102, 1.08112550, -5.49546909, -24.70038033, -58.78398132, 87.44447327, -8.27181911, -73.70511627, 0.60668164, -0.52035439, 0.45515844, 0.39242783, -0.01493563, 0.01271952, -0.01276314, 0.00000000, 0.00000000, 0.00000000, 0.00000000
1, 0.4550, 168, -0.13303873, -1.00614285, -0.03154861, 8.91339111, -5.53857040, 1.00770104, -5.70008755, -25.19731140, -58.02396774, 87.46874237, -8.27495384, -73.71898651, 0.60653406, -0.52041489, 0.45531952, 0.39238885, -0.01088485, 0.01751954, -0.01215644, 0.00000000, 0.00000000, 0.00000000, 0.00000000
1, 0.4575, 169, -0.13630262, -1.00607347, -0.02885252, 9.27499866, -5.81106472, 0.93288398, -5.70008755, -25.19731140, -58.02396774, 87.49402618, -8.27792358, -73.73354340, 0.60637897, -0.52047855, 0.45548636, 0.39235029, -0.00767227, 0.01743841, -0.01441593, 0.00000000, 0.00000000, 0.00000000, 0.00000000
1, 0.4600, 170, -0.14039476, -1.00984597, -0.02425839, 9.34677505, -5.80929518, 0.86273324, -5.70008755, -25.19731140, -58.02396774, 87.51950073, -8.28070831, -73.74811554, 0.60622251, -0.52054393, 0.45565307, 0.39231202, -0.00362821, 0.02119899, -0.01857034, 0.00000000, 0.00000000, 0.00000000, 0.00000000
1, 0.4625, 171, -0.14316168, -1.01212525, -0.02049950, 9.49079514, -5.87389421, 0.65156627, -5.70008755, -25.19731140, -58.02396774, 87.54534149, -8.28297043, -73.76287079, 0.60606188, -0.52061266, 0.45581934, 0.39227569, -0.00090036, 0.02346463, -0.02188293, 0.00000000, 0.00000000, 0.00000000, 0.00000000
1, 0.4650, 172, -0.14762652, -1.01440883, -0.01698159, 9.41801548, -5.80203199, 0.44295827, -5.70008755, -25.19731140, -58.02396774, 87.57099152, -8.28469944, -73.77746582, 0.60590100, -0.52068311, 0.45598170, 0.39224207, 0.00353462, 0.02573360, -0.02495810, 0.00000000, 0.00000000, 0.00000000, 0.00000000
1, 0.4675, 173, -0.14870845, -1.01554096, -0.01553033, 9.34429932, -5.59389305, 0.37608156, -5.64162540, -24.72961044, -57.64396286, 87.59638977, -8.28622913, -73.79154968, 0.60574239, -0.52075499, 0.45613989, 0.39220768, 0.00459014, 0.02685106, -0.02597101, 0.00000000, 0.00000000, 0.00000000, 0.00000000
1, 0.4700, 174, -0.14906400, -1.01509094, -0.01271218, 9.48857498, -5.72443390, -0.04580072, -5.64162540, -24.72961044, -57.64396286, 87.62220001, -8.28670788, -73.80600739, 0.60557717, -0.52083188, 0.45629621, 0.39217889, 0.00493743, 0.02638377, -0.02834375, 0.00000000, 0.00000000, 0.00000000, 0.00000000
1, 0.4725, 175, -0.14990398, -1.01500845, -0.01014305, 9.63364220, -5.92640972, -0.32877406, -5.64162540, -24.72961044, -57.64396286, 87.64844513, -8.28649902, -73.82100677, 0.60540587, -0.52091169, 0.45645320, 0.39215466, 0.00578100, 0.02628195, -0.03045997, 0.00000000, 0.00000000, 0.00000000, 0.00000000
1, 0.4750, 176, -0.15062524, -1.01624787, -0.00967175, 9.92226028, -6.12484550, -0.75204879, -5.64162540, -24.72961044, -57.64396286, 87.67549133, -8.28524494, -73.83653259, 0.60522568, -0.52099788, 0.45661044, 0.39213538, 0.00652390, 0.02749920, -0.03046462, 0.00000000, 0.00000000, 0.00000000, 0.00000000
1, 0.4775, 177, -0.15134445, -1.01592076, -0.00697693, 10.06675053, -6.25758314, -1.03408146, -5.64162540, -24.72961044, -57.64396286, 87.70294952, -8.28329182, -73.85243988, 0.60504001, -0.52108753, 0.45676738, 0.39211982, 0.00727686, 0.02714807, -0.03268582, 0.00000000, 0.00000000, 0.00000000, 0.00000000
1, 0.4800, 178, -0.15086265, -1.01457345, -0.00646850, 10.28196907, -6.25117493, -1.31445825, -5.99239969, -24.93422890, -58.57936096, 87.73094940, -8.28062534, -73.86834717, 0.60484958, -0.52118289, 0.45692289, 0.39210579, 0.00684111, 0.02577472, -0.03271131, 0.00000000, 0.00000000, 0.00000000, 0.00000000
1, 0.4825, 179, -0.14807071, -1.01639366, -0.00723527, 10.28384972, -6.52373171, -1.59792078, -5.99239969, -24.93422890, -58.57936096, 87.75905609, -8.27727699, -73.88497162, 0.60465389, -0.52127868, 0.45707873, 0.39209849, 0.00410701, 0.02756757, -0.03145986, 0.00000000, 0.00000000, 0.00000000, 0.00000000
1, 0.4850, 180, -0.14381820, -1.01823139, -0.00629453, 10.28562355, -6.79518890, -1.95130789, -5.99239969, -24.93422890, -58.57936096, 87.78725433, -8.27306461, -73.90232086, 0.60445249, -0.52137566, 0.45723414, 0.39209893, -0.00007275, 0.02937573, -0.03191422, 0.00000000, 0.00000000, 0.00000000, 0.00000000
1, 0.4875, 181, -0.13886251, -1.01609099, -0.00822707, 10.21457577, -6.93103981, -2.16273808, -5.99239969, -24.93422890, -58.57936096, 87.81533813, -8.26833057, -73.92002106, 0.60424870, -0.52147263, 0.45738831, 0.39210439, -0.00494668, 0.02720488, -0.02949752, 0.00000000, 0.00000000, 0.00000000, 0.00000000
1, 0.4900, 182, -0.13681176, -1.01361787, -0.00856001, 9.99468040, -6.44619417, -2.29532504, -5.99239969, -24.93422890, -58.57936096, 87.85316467, -8.25598621, -73.95621490, 0.60391235, -0.52157837, 0.45762390, 0.39220706, -0.00678422, 0.02467609, -0.02851287, 0.00000000, 0.00000000, 0.00000000, 0.00000000
1, 0.4925, 183, -0.13257143, -1.01152956, -0.00707035, 9.84933758, -6.30466843, -2.57269144, -5.49546909, -24.93422890, -57.96550751, 87.88010406, -8.25014877, -73.97236633, 0.60371530, -0.52167982, 0.45776191, 0.39221430, -0.01092371, 0.02255583, -0.02953805, 0.00000000, 0.00000000, 0.00000000, 0.00000000
1, 0.4950, 184, -0.12663744, -1.00966167, -0.00680951, 9.41322136, -5.75259876, -2.70365977, -5.49546909, -24.93422890, -57.96550751, 87.90575409, -8.24392891, -73.98714447, 0.60352761, -0.52178156, 0.45788747, 0.39222136, -0.01675026, 0.02065599, -0.02935675, 0.00000000, 0.00000000, 0.00000000, 0.00000000
1, 0.4975, 185, -0.12263772, -1.00927794, -0.00656743, 8.90428448, -5.06492376, -2.69267130, -5.49546909, -24.93422890, -57.96550751, 87.92988586, -8.23765945, -74.00018311, 0.60335255, -0.52188236, 0.45799971, 0.39222553, -0.02064170, 0.02024162, -0.02918281, 0.00000000, 0.00000000, 0.00000000, 0.00000000
1, 0.5000, 186, -0.11791937, -1.00679588, -0.00666129, 8.75994396, -4.99702930, -2.69127893, -5.49546909, -24.93422890, -57.96550751, 87.95362854, -8.23138237, -74.01303101, 0.60317981, -0.52198178, 0.45810974, 0.39223027, -0.02525161, 0.01772916, -0.02867970, 0.00000000, 0.00000000, 0.00000000, 0.00000000
1, 0.5025, 187, -0.11514740, -1.00271988, -0.00709336, 8.54707623, -5.34413290, -2.76523018, -5.49546909, -24.93422890, -57.96550751, 87.97696686, -8.22494698, -74.02677155, 0.60300541, -0.52207619, 0.45822170, 0.39224210, -0.02791243, 0.01362265, -0.02784534, 0.00000000, 0.00000000, 0.00000000, 0.00000000
1, 0.5050, 188, -0.11358111, -0.99988747, -0.00693101, 8.47310162, -5.07005119, -2.62139153, -5.17392588, -25.19731140, -57.96550751, 88.00000763, -8.21884155, -74.03979492, 0.60283583, -0.52217048, 0.45833105, 0.39224964, -0.02937325, 0.01076120, -0.02761045, 0.00000000, 0.00000000, 0.00000000, 0.00000000
1, 0.5075, 189, -0.11648940, -1.00135851, -0.00816955, 8.54414940, -4.93420029, -2.40996146, -5.17392588, -25.19731140, -57.96550751, 88.02317810, -8.21324539, -74.05246735, 0.60266852, -0.52226472, 0.45844159, 0.39225212, -0.02636832, 0.01220429, -0.02597241, 0.00000000, 0.00000000, 0.00000000, 0.00000000
1, 0.5100, 190, -0.11830676, -1.00209749, -0.00866593, 8.83210278, -4.93590879, -2.13116527, -5.17392588, -25.19731140, -57.96550751, 88.04705811, -8.20835018, -74.06510925, 0.60250026, -0.52235985, 0.45855772, 0.39224797, -0.02446637, 0.01291692, -0.02506413, 0.00000000, 0.00000000, 0.00000000, 0.00000000
1, 0.5125, 191, -0.12459449, -1.00533986, -0.00748072, 9.19323921, -5.14026403, -2.13511682, -5.17392588, -25.19731140, -57.96550751, 88.07192230, -8.20345211, -74.07826996, 0.60232574, -0.52245802, 0.45867965, 0.39224264, -0.01809402, 0.01613259, -0.02582046, 0.00000000, 0.00000000, 0.00000000, 0.00000000
1, 0.5150, 192, -0.13087010, -1.01190257, -0.00622416, 9.55700493, -5.62486458, -1.93305671, -5.17392588, -25.19731140, -57.96550751, 88.09786987, -8.19908714, -74.09263611, 0.60214394, -0.52255481, 0.45881331, 0.39223653, -0.01174301, 0.02266943, -0.02662944, 0.00000000, 0.00000000, 0.00000000, 0.00000000
1, 0.5175, 193, -0.13715911, -1.01538205, -0.00565356, 9.99013042, -5.82964754, -1.86730921, -6.05086231, -24.29114342, -58.31628036, 88.12496948, -8.19489861, -74.10751343, 0.60195571, -0.52265489, 0.45895410, 0.39222753, -0.00538166, 0.02612311, -0.02673254, 0.00000000, 0.00000000, 0.00000000, 0.00000000
1, 0.5200, 194, -0.14647557, -1.01828206, -0.00360152, 10.27996349, -6.10391235, -1.87197566, -6.05086231, -24.29114342, -58.31628036, 88.15288544, -8.19072056, -74.12307739, 0.60176134, -0.52275640, 0.45910090, 0.39221877, 0.00400698, 0.02899706, -0.02830288, 0.00000000, 0.00000000, 0.00000000, 0.00000000
1, 0.5225, 195, -0.15471013, -1.01968646, -0.00262858, 10.71323967, -6.37353802, -2.08686805, -6.05086231, -24.29114342, -58.31628036, 88.18198395, -8.18601322, -74.13932800, 0.60155737, -0.52286339, 0.45925239, 0.39221150, 0.01232286, 0.03037369, -0.02877368, 0.00000000, 0.00000000, 0.00000000, 0.00000000
1, 0.5250, 196, -0.16148062, -1.02245510, -0.00033535, 11.07405853, -6.57459688, -2.30059409, -6.05086231, -24.29114342, -58.31628036, 88.21205902, -8.18078327, -74.15610504, 0.60134554, -0.52297550, 0.45940721, 0.39220574, 0.01918370, 0.03311294, -0.03054809, 0.00000000, 0.00000000, 0.00000000, 0.00000000
1, 0.5275, 197, -0.16777179, -1.02568352, -0.00012749, 11.36241817, -6.70709133, -2.51315331, -6.05086231, -24.29114342, -58.31628036, 88.24290466, -8.17502117, -74.17323303, 0.60112709, -0.52309233, 0.45956367, 0.39220130, 0.02557442, 0.03631067, -0.03022379, 0.00000000, 0.00000000, 0.00000000, 0.00000000
1, 0.5300, 198, -0.17491107, -1.02831197, 0.00082447, 11.72511768, -7.18070793, -3.01034188, -5.75855017, -24.08652496, -57.35165024, 88.27482605, -8.16804504, -74.19159698, 0.60089552, -0.52321482, 0.45972380, 0.39220518, 0.03283422, 0.03890491, -0.03062510, 0.00000000, 0.00000000, 0.00000000, 0.00000000
1, 0.5325, 199, -0.18483923, -1.02985930, 0.00265408, 12.16001606, -7.65694714, -3.29798198, -5.75855017, -24.08652496, -57.35165024, 88.30799866, -8.16037369, -74.21117401, 0.60065174, -0.52334177, 0.45989057, 0.39221385, 0.04289492, 0.04041637, -0.03188235, 0.00000000, 0.00000000, 0.00000000, 0.00000000
1, 0.5350, 200, -0.18990737, -1.03651845, 0.00244031, 12.59607029, -8.27166271, -3.58750296, -5.75855017, -24.08652496, -57.35165024, 88.34249115, -8.15201569, -74.23231506, 0.60039419, -0.52347201, 0.46006575, 0.39222887, 0.04810748, 0.04703738, -0.03107356, 0.00000000, 0.00000000, 0.00000000, 0.00000000
1, 0.5375, 201, -0.18990737, -1.03651845, 0.00244031, 12.59607029, -8.27166271, -3.58750296, -5.75855017, -24.08652496, -57.35165024, 88.37697601, -8.14364815, -74.25345612, 0.60013658, -0.52360213, 0.46024087, 0.39224383, 0.04825202, 0.04699957, -0.03047858, 0.00000000, 0.00000000, 0.00000000, 0.00000000
1, 0.5400, 202, -0.19823694, -1.04069507, 0.00813671, 15.63462257, -10.78657627, -4.82051849, -5.75855017, -24.08652496, -57.35165024, 88.42580414, -8.14704800, -74.25494385, 0.59991962, -0.52383792, 0.46043086, 0.39203814, 0.05652286, 0.05116107, -0.03533142, 0.00000000, 0.00000000, 0.00000000, 0.00000000
1, 0.5425, 203, -0.19823694, -1.04069507, 0.00813671, 15.63462257, -10.78657627, -4.82051849, -5.75855017, -24.08652496, -57.38088226, 88.46879578, -8.13573360, -74.28250885, 0.59959126, -0.52399862, 0.46065062, 0.39206740, 0.05671833, 0.05111301, -0.03458970, 0.00000000, 0.00000000, 0.00000000, 0.00000000
1, 0.5800, 204, -0.20785132, -1.05149639, 0.02106617, 22.95929718, -19.61308479, -11.74833679, -5.87547493, -24.34960556, -57.41011429, 89.38646698, -7.82772541, -74.94275665, 0.59208649, -0.52736652, 0.46538174, 0.39336741, 0.07165639, 0.06087106, -0.03167491, 0.00000000, 0.00000000, 0.00000000, 0.00000000
1, 0.5825, 205, -0.21160462, -1.05419707, 0.01956614, 22.59882355, -19.60545731, -12.44645596, -4.96930695, -24.46652985, -56.79625702, 89.44973755, -7.79710245, -74.99254608, 0.59152049, -0.52761650, 0.46568570, 0.39352429, 0.07593922, 0.06348814, -0.02908164, 0.00000000, 0.00000000, 0.00000000, 0.00000000
1, 0.5850, 206, -0.21692383, -1.05888379, 0.01889430, 22.45734787, -20.01014137, -13.22082138, -4.96930695, -24.46652985, -56.79625702, 89.51275635, -7.76450300, -75.04332733, 0.59094501, -0.52786869, 0.46598434, 0.39369693, 0.08182214, 0.06808794, -0.02732081, 0.00000000, 0.00000000, 0.00000000, 0.00000000
1, 0.5875, 207, -0.22090456, -1.06297934, 0.02030612, 22.16471863, -19.51717949, -13.91258240, -4.96930695, -24.46652985, -56.79625702, 89.57483673, -7.73010588, -75.09284973, 0.59037173, -0.52812815, 0.46626601, 0.39387566, 0.08639774, 0.07209398, -0.02765958, 0.00000000, 0.00000000, 0.00000000, 0.00000000
1, 0.5900, 208, -0.22657904, -1.06479430, 0.02505566, 22.08763123, -19.02110481, -14.67494583, -4.96930695, -24.46652985, -56.79625702, 89.63887787, -7.70736647, -75.11554718, 0.58992094, -0.52845865, 0.46648514, 0.39384830, 0.09246551, 0.07384814, -0.03130193, 0.00000000, 0.00000000, 0.00000000, 0.00000000
1, 0.5925, 209, -0.23576705, -1.06699634, 0.02992866, 22.15487862, -18.59292412, -15.43869972, -4.96930695, -24.46652985, -56.79625702, 89.70058441, -7.66904068, -75.16268158, 0.58934343, -0.52874106, 0.46673670, 0.39403579, 0.10231647, 0.07595438, -0.03510829, 0.00000000, 0.00000000, 0.00000000, 0.00000000
1, 0.5950, 210, -0.24349956, -1.06992197, 0.03429882, 22.43546677, -17.88577652, -16.19936943, -4.88161373, -24.93422890, -56.44548416, 89.76269531, -7.62875462, -75.20798492, 0.58876312, -0.52904058, 0.46697256, 0.39422181, 0.11074582, 0.07878144, -0.03840440, 0.00000000, 0.00000000, 0.00000000, 0.00000000
1, 0.5975, 211, -0.25619856, -1.07336915, 0.03915995, 23.01075745, -18.07274055, -17.18294525, -4.88161373, -24.93422890, -56.44548416, 89.82628632, -7.58595753, -75.25372314, 0.58816540, -0.52935559, 0.46720412, 0.39441654, 0.12418514, 0.08212578, -0.04216584, 0.00000000, 0.00000000, 0.00000000, 0.00000000
1, 0.6000, 212, -0.26876467, -1.07868052, 0.04545864, 23.44123840, -18.12366867, -18.09426308, -4.88161373, -24.93422890, -56.44548416, 89.89091492, -7.54083347, -75.29954529, 0.58755416, -0.52968472, 0.46742931, 0.39461902, 0.13753201, 0.08733071, -0.04734664, 0.00000000, 0.00000000, 0.00000000, 0.00000000
1, 0.6025, 213, -0.28022018, -1.08467245, 0.05675473, 24.45034027, -18.58574867, -18.94310951, -4.88161373, -24.93422890, -56.44548416, 89.95817566, -7.49354076, -75.34647369, 0.58691877, -0.53003109, 0.46765897, 0.39482713, 0.14980581, 0.09321320, -0.05747896, 0.00000000, 0.00000000, 0.00000000, 0.00000000
1, 0.6050, 214, -0.29251391, -1.09143710, 0.07024026, 25.67749977, -19.32386398, -19.72647095, -4.88161373, -24.93422890, -56.44548416, 90.02870941, -7.44423103, -75.39520264, 0.58625454, -0.53039449, 0.46789932, 0.39504105, 0.16295289, 0.09986573, -0.06974398, 0.00000000, 0.00000000, 0.00000000, 0.00000000
1, 0.6075, 215, -0.30457550, -1.09755313, 0.08141350, 27.48605347, -20.81822014, -20.52198792, -4.91084480, -24.84653664, -56.41625214, 90.10419464, -7.39286089, -75.44762421, 0.58554691, -0.53077596, 0.46816486, 0.39526373, 0.17590351, 0.10586762, -0.07961067, 0.00000000, 0.00000000, 0.00000000, 0.00000000
1, 0.6100, 216, -0.31749201, -1.10388947, 0.09050775, 29.29183197, -21.96748543, -21.24287415, -4.91084480, -24.84653664, -56.41625214, 90.18450928, -7.33961439, -75.50286865, 0.58479995, -0.53117752, 0.46845195, 0.39549017, 0.18974173, 0.11208823, -0.08731443, 0.00000000, 0.00000000, 0.00000000, 0.00000000
1, 0.6125, 217, -0.32582468, -1.10575151, 0.09770597, 31.38592720, -23.18550301, -21.82575417, -4.91084480, -24.84653664, -56.41625214, 90.27037811, -7.28482294, -75.56108856, 0.58401066, -0.53160065, 0.46876535, 0.39571631, 0.19902292, 0.11383447, -0.09302565, 0.00000000, 0.00000000, 0.00000000, 0.00000000
1, 0.6150, 218, -0.33428544, -1.10734427, 0.10319779, 33.55294418, -24.54022217, -22.48066902, -4.91084480, -24.84653664, -56.41625214, 90.36203003, -7.22827816, -75.62262726, 0.58317614, -0.53204596, 0.46910673, 0.39594403, 0.20846267, 0.11531141, -0.09692989, 0.00000000, 0.00000000, 0.00000000, 0.00000000
1, 0.6175, 219, -0.34201857, -1.10675406, 0.11104330, 35.79546356, -26.37454414, -23.42209244, -4.91084480, -24.84653664, -56.41625214, 90.45980835, -7.16924810, -75.68865967, 0.58228803, -0.53251302, 0.46947935, 0.39618158, 0.21721788, 0.11460412, -0.10308149, 0.00000000, 0.00000000, 0.00000000, 0.00000000
1, 0.6200, 220, -0.34635812, -1.10457110, 0.12037262, 37.67416763, -27.66051674, -24.21501350, -4.61853266, -25.54808426, -55.80239487, 90.56259155, -7.10809374, -75.75779724, 0.58135736, -0.53300023, 0.46987471, 0.39642438, 0.22261657, 0.11230448, -0.11062982, 0.00000000, 0.00000000, 0.00000000, 0.00000000
1, 0.6225, 221, -0.34817728, -1.09548986, 0.12955798, 39.19325256, -28.94764519, -25.14665222, -4.61853266, -25.54808426, -55.80239487, 90.66947174, -7.04445362, -75.83003998, 0.58038694, -0.53350443, 0.47028810, 0.39667785, 0.22553800, 0.10310629, -0.11796246, 0.00000000, 0.00000000, 0.00000000, 0.00000000
1, 0.6250, 222, -0.35810742, -1.09181976, 0.13623317, 40.42287064, -30.02755547, -26.21441841, -4.61853266, -25.54808426, -55.80239487, 90.77966309, -6.97797441, -75.90482330, 0.57938099, -0.53402489, 0.47071263, 0.39694420, 0.23661968, 0.09931874, -0.12272723, 0.00000000, 0.00000000, 0.00000000, 0.00000000
1, 0.6275, 223, -0.36568630, -1.09463453, 0.15013608, 41.22328949, -31.38624573, -27.42444038, -4.61853266, -25.54808426, -55.80239487, 90.89215851, -6.90827322, -75.98286438, 0.57834035, -0.53455538, 0.47114646, 0.39723283, 0.24540618, 0.10201496, -0.13467911, 0.00000000, 0.00000000, 0.00000000, 0.00000000
1, 0.6300, 224, -0.37019393, -1.09311843, 0.18035130, 41.58539200, -31.91701698, -28.69174004, -4.61853266, -25.54808426, -55.80239487, 91.00559998, -6.83523178, -76.06202698, 0.57727814, -0.53509796, 0.47157457, 0.39753929, 0.25117946, 0.10037886, -0.16292642, 0.00000000, 0.00000000, 0.00000000, 0.00000000
1, 0.6325, 225, -0.37986305, -1.08528256, 0.19674332, 41.58498764, -32.10275650, -30.09305954, -3.65390229, -24.84653664, -55.77316666, 91.11896515, -6.75852299, -76.14144135, 0.57620096, -0.53565246, 0.47198793, 0.39786497, 0.26217800, 0.09242095, -0.17735122, 0.00000000, 0.00000000, 0.00000000, 0.00000000
1, 0.6350, 226, -0.38382852, -1.07962728, 0.21272369, 41.50895691, -32.06058502, -32.81990051, -3.65390229, -24.84653664, -55.77316666, 91.23196411, -6.67485237, -76.22042847, 0.57510036, -0.53623337, 0.47236729, 0.39822438, 0.26759380, 0.08663519, -0.19136973, 0.00000000, 0.00000000, 0.00000000, 0.00000000
1, 0.6375, 227, -0.38382852, -1.07962728, 0.21272369, 41.50895691, -32.06058502, -32.81990051, -3.65390229, -24.84653664, -55.77316666, 91.34484100, -6.59102201, -76.29924011, 0.57399869, -0.53681332, 0.47274578, 0.39858308, 0.26904714, 0.08651020, -0.18940963, 0.00000000, 0.00000000, 0.00000000, 0.00000000
1, 0.6400, 228, -0.39334387, -1.06526017, 0.24534546, 41.10183334, -35.35176849, -35.17122269, -3.65390229, -24.84653664, -55.77316666, 91.46643066, -6.51978970, -76.35521698, 0.57297909, -0.53747863, 0.47310603, 0.39872599, 0.27979758, 0.07205279, -0.21992035, 0.00000000, 0.00000000, 0.00000000, 0.00000000
1, 0.6425, 229, -0.39334387, -1.06526017, 0.24534546, 41.10183334, -35.35176849, -35.17122269, -3.65390229, -24.84653664, -55.77316666, 91.57894135, -6.42954588, -76.44178009, 0.57182574, -0.53804737, 0.47349262, 0.39915556, 0.28136253, 0.07192707, -0.21796505, 0.00000000, 0.00000000, 0.00000000, 0.00000000
1, 0.6450, 230, -0.40833858, -1.05493748, 0.26667434, 41.27106094, -38.84089279, -37.80686951, -3.71236467, -24.96346092, -54.69160843, 91.69267273, -6.33229733, -76.53673553, 0.57061023, -0.53861392, 0.47389227, 0.39965639, 0.29804403, 0.06147218, -0.23731676, 0.00000000, 0.00000000, 0.00000000, 0.00000000
1, 0.6475, 231, -0.41558567, -1.05204809, 0.27724242, 41.72129822, -41.31074524, -39.03081131, -3.71236467, -24.96346092, -54.69160843, 91.80800629, -6.23161173, -76.63758850, 0.56935185, -0.53917599, 0.47431111, 0.40019587, 0.30703786, 0.05845165, -0.24587893, 0.00000000, 0.00000000, 0.00000000, 0.00000000
1, 0.6500, 232, -0.42354727, -1.04921389, 0.29147702, 41.95405960, -43.57379913, -40.32118607, -3.71236467, -24.96346092, -54.69160843, 91.92432404, -6.12731552, -76.74379730, 0.56805468, -0.53973317, 0.47474372, 0.40077460, 0.31680924, 0.05548739, -0.25808990, 0.00000000, 0.00000000, 0.00000000, 0.00000000
1, 0.6525, 233, -0.43079275, -1.04475629, 0.30414641, 42.25926971, -45.90541077, -41.61272430, -3.71236467, -24.96346092, -54.69160843, 92.04179382, -6.01937485, -76.85552979, 0.56671709, -0.54028589, 0.47519156, 0.40139270, 0.32592809, 0.05090119, -0.26871493, 0.00000000, 0.00000000, 0.00000000, 0.00000000
1, 0.6550, 234, -0.43611947, -1.03657079, 0.31466943, 42.78553772, -48.86035156, -42.77355194, -3.71236467, -24.96346092, -54.69160843, 92.16110229, -5.90803242, -76.97431183, 0.56533080, -0.54082966, 0.47566542, 0.40205330, 0.33318752, 0.04258978, -0.27716088, 0.00000000, 0.00000000, 0.00000000, 0.00000000
1, 0.6575, 235, -0.44049889, -1.02417076, 0.32305548, 43.52801895, -51.88251495, -43.93600082, -3.80005836, -26.07424736, -54.28237152, 92.28277588, -5.79324198, -77.10031891, 0.56389248, -0.54136652, 0.47616798, 0.40275502, 0.33955997, 0.03006762, -0.28342816, 0.00000000, 0.00000000, 0.00000000, 0.00000000
1, 0.6600, 236, -0.44316360, -1.01353025, 0.33471036, 44.34580231, -55.25568008, -44.75375748, -3.80005836, -26.07424736, -54.28237152, 92.40703583, -5.67580080, -77.23443604, 0.56240058, -0.54189056, 0.47670802, 0.40349683, 0.34426421, 0.01931090, -0.29291856, 0.00000000, 0.00000000, 0.00000000, 0.00000000
1, 0.6625, 237, -0.44934410, -1.00266230, 0.34649816, 45.31228256, -59.18471146, -45.36971283, -3.80005836, -26.07424736, -54.28237152, 92.53437042, -5.55610323, -77.37805939, 0.56084895, -0.54239643, 0.47729585, 0.40428123, 0.35252380, 0.00833386, -0.30248788, 0.00000000, 0.00000000, 0.00000000, 0.00000000
1, 0.6650, 238, -0.45214614, -0.98723245, 0.35847110, 46.35311890, -63.32846069, -45.49924469, -3.80005836, -26.07424736, -54.28237152, 92.66498566, -5.43528700, -77.53176117, 0.55923855, -0.54287779, 0.47794020, 0.40510383, 0.35742474, -0.00719476, -0.31218478, 0.00000000, 0.00000000, 0.00000000, 0.00000000
1, 0.6675, 239, -0.45676163, -0.97364777, 0.36993068, 47.83043289, -68.09133148, -45.63859940, -3.80005836, -26.07424736, -54.28237152, 92.80003357, -5.31320572, -77.69708252, 0.55755752, -0.54333431, 0.47865212, 0.40596750, 0.36416158, -0.02086693, -0.32129067, 0.00000000, 0.00000000, 0.00000000, 0.00000000
1, 0.6700, 240, -0.46246624, -0.96213502, 0.37977222, 49.60031128, -73.40979767, -45.50668335, -2.80619693, -25.57731628, -53.66851807, 92.94036102, -5.19039488, -77.87543488, 0.55579865, -0.54376137, 0.47944385, 0.40687230, 0.37200063, -0.03245336, -0.32868657, 0.00000000, 0.00000000, 0.00000000, 0.00000000
1, 0.6725, 241, -0.46792272, -0.95318848, 0.38859636, 51.22733307, -78.80214691, -45.16548157, -2.80619693, -25.57731628, -53.66851807, 93.08554840, -5.06728363, -78.06700134, 0.55396438, -0.54415405, 0.48031712, 0.40781796, 0.37959734, -0.04145915, -0.33498031, 0.00000000, 0.00000000, 0.00000000, 0.00000000
1, 0.6750, 242, -0.47954220, -0.95028460, 0.39672965, 53.00292969, -84.74926758, -44.69240952, -2.80619693, -25.57731628, -53.66851807, 93.23604584, -4.94404793, -78.27317810, 0.55204785, -0.54450727, 0.48128095, 0.40880758, 0.39335948, -0.04440614, -0.34049064, 0.00000000, 0.00000000, 0.00000000, 0.00000000
1, 0.6775, 243, -0.49430445, -0.94512957, 0.40979171, 54.70597076, -90.62669373, -44.28808594, -2.80619693, -25.57731628, -53.66851807, 93.39159393, -4.82041454, -78.49376678, 0.55004966, -0.54482120, 0.48233277, 0.40984190, 0.41027170, -0.04958822, -0.35084173, 0.00000000, 0.00000000, 0.00000000, 0.00000000
1, 0.6800, 244, -0.51098889, -0.94477886, 0.42290637, 56.41236496, -96.91845703, -43.95934677, -2.80619693, -25.57731628, -53.66851807, 93.55220032, -4.69604492, -78.72977448, 0.54796433, -0.54509228, 0.48347604, 0.41092634, 0.42911932, -0.04994936, -0.36115715, 0.00000000, 0.00000000, 0.00000000, 0.00000000
1, 0.6825, 245, -0.53141969, -0.94800478, 0.43560737, 58.41230774, -103.96585846, -43.85162735, -2.28003502, -25.57731628, -52.67465591, 93.71868896, -4.57015467, -78.98303986, 0.54577786, -0.54531902, 0.48471925, 0.41206923, 0.45174015, -0.04671700, -0.37095633, 0.00000000, 0.00000000, 0.00000000, 0.00000000
1, 0.6850, 246, -0.54771030, -0.95213616, 0.45280734, 60.12656021, -111.22475433, -43.67589569, -2.28003502, -25.57731628, -52.67465591, 93.89029694, -4.44276047, -79.25407410, 0.54349142, -0.54549456, 0.48606244, 0.41327491, 0.47024733, -0.04256190, -0.38516554, 0.00000000, 0.00000000, 0.00000000, 0.00000000
1, 0.6875, 247, -0.56350565, -0.95776111, 0.47144976, 61.98299408, -118.33943939, -43.77844238, -2.28003502, -25.57731628, -52.67465591, 94.06726837, -4.31305027, -79.54245758, 0.54110157, -0.54562414, 0.48750114, 0.41454309, 0.48829982, -0.03689551, -0.40072358, 0.00000000, 0.00000000, 0.00000000, 0.00000000
1, 0.6900, 248, -0.57675773, -0.96203250, 0.49084088, 64.27019501, -125.44458771, -44.23196030, -2.28003502, -25.57731628, -52.67465591, 94.25886536, -4.19568348, -79.82402039, 0.53870893, -0.54579508, 0.48901871, 0.41564539, 0.50359470, -0.03253359, -0.41677767, 0.00000000, 0.00000000, 0.00000000, 0.00000000
1, 0.6925, 249, -0.58410794, -0.95473492, 0.51125240, 66.69511414, -131.91647339, -45.23686600, -2.28003502, -25.57731628, -52.67465591, 94.44870758, -4.05788231, -80.14509583, 0.53609413, -0.54586226, 0.49063241, 0.41703391, 0.51334375, -0.03975290, -0.43388081, 0.00000000, 0.00000000, 0.00000000, 0.00000000
1, 0.6950, 250, -0.59786999, -0.95200098, 0.53062963, 68.97315979, -138.04132080, -46.37646866, -2.16311026, -26.16194153, -51.44694519, 94.64447784, -3.91495299, -80.48074341, 0.53336990, -0.54590601, 0.49231914, 0.41847935, 0.52959436, -0.04238957, -0.44984648, 0.00000000, 0.00000000, 0.00000000, 0.00000000
1, 0.6975, 251, -0.60400587, -0.94543338, 0.55090535, 71.61035919, -144.09687805, -47.30648422, -2.16311026, -26.16194153, -51.44694519, 94.84693909, -3.76728559, -80.83074951, 0.53053397, -0.54592824, 0.49408302, 0.41997412, 0.53830183, -0.04883756, -0.46659431, 0.00000000, 0.00000000, 0.00000000, 0.00000000
1, 0.7000, 252, -0.60808438, -0.93872118, 0.57032365, 73.59670258, -149.67491150, -48.15795517, -2.16311026, -26.16194153, -51.44694519, 95.05431366, -3.61505175, -81.19389343, 0.52759898, -0.54592383, 0.49591258, 0.42151782, 0.54503173, -0.05540842, -0.48239949, 0.00000000, 0.00000000, 0.00000000, 0.00000000
1, 0.7025, 253, -0.61071020, -0.92920822, 0.59210360, 75.73387909, -156.14729309, -49.30180359, -2.16311026, -26.16194153, -51.44694519, 95.26698303, -3.45718408, -81.57231140, 0.52455014, -0.54588878, 0.49781531, 0.42312241, 0.55040759, -0.06475753, -0.50047439, 0.00000000, 0.00000000, 0.00000000, 0.00000000
1, 0.7050, 254, -0.61164105, -0.92149633, 0.61140859, 76.93233490, -162.14155579, -50.57598495, -2.16311026, -26.16194153, -51.44694519, 95.48242188, -3.29332638, -81.96472168, 0.52140176, -0.54581732, 0.49977455, 0.42479318, 0.55419344, -0.07228549, -0.51602668, 0.00000000, 0.00000000, 0.00000000, 0.00000000
1, 0.7075, 255, -0.61064529, -0.91202676, 0.62878138, 77.40648651, -167.51606750, -52.04921722, -2.16311026, -26.16194153, -51.44694519, 95.69859314, -3.12302566, -82.36947632, 0.51816660, -0.54570806, 0.50177324, 0.42653227, 0.55616534, -0.08155359, -0.52963424, 0.00000000, 0.00000000, 0.00000000, 0.00000000
1, 0.7100, 256, -0.60868132, -0.89903355, 0.64938325, 76.86991882, -172.41203308, -53.72247696, -0.46769950, -26.10347748, -50.80385971, 95.91277313, -2.94580698, -82.78527832, 0.51485944, -0.54555577, 0.50379336, 0.42834681, 0.55729008, -0.09433213, -0.54650581, 0.00000000, 0.00000000, 0.00000000, 0.00000000
1, 0.7125, 257, -0.60308337, -0.88698226, 0.66825247, 75.31814575, -176.27664185, -55.51831055, -0.46769950, -26.10347748, -50.80385971, 96.12219238, -2.76157761, -83.20951080, 0.51150185, -0.54535955, 0.50581163, 0.43023655, 0.55490357, -0.10615978, -0.56172776, 0.00000000, 0.00000000, 0.00000000, 0.00000000
1, 0.7150, 258, -0.59749478, -0.87368107, 0.68567443, 72.75374603, -179.45280457, -57.65119934, -0.46769950, -26.10347748, -50.80385971, 96.32411194, -2.56966758, -83.64035034, 0.50810987, -0.54511791, 0.50780624, 0.43220797, 0.55266082, -0.11923435, -0.57563323, 0.00000000, 0.00000000, 0.00000000, 0.00000000
1, 0.7175, 259, -0.58840084, -0.85911179, 0.70152014, 69.10881042, -182.36206055, -59.77693939, -0.46769950, -26.10347748, -50.80385971, 96.51571655, -2.37018180, -84.07708740, 0.50469899, -0.54482132, 0.50976348, 0.43426946, 0.54704529, -0.13357905, -0.58814222, 0.00000000, 0.00000000, 0.00000000, 0.00000000
1, 0.7200, 260, -0.57444972, -0.84479707, 0.71955162, 64.38082886, -184.72531128, -62.03161621, -0.46769950, -26.10347748, -50.80385971, 96.69411469, -2.16301203, -84.51833344, 0.50128663, -0.54446453, 0.51166493, 0.43642777, 0.53670716, -0.14767799, -0.60306662, 0.00000000, 0.00000000, 0.00000000, 0.00000000
1, 0.7225, 261, -0.55951697, -0.83525044, 0.73604161, 58.86019897, -186.88601685, -64.42082977, 0.87693655, -26.86348915, -49.45922089, 96.85723114, -1.94795978, -84.96356201, 0.49788290, -0.54404247, 0.51349878, 0.43869072, 0.52552533, -0.15702268, -0.61671555, 0.00000000, 0.00000000, 0.00000000, 0.00000000
1, 0.7250, 262, -0.54627913, -0.82644743, 0.75240153, 52.83362198, -188.70634460, -66.73384857, 0.87693655, -26.86348915, -49.45922089, 97.00369263, -1.72541869, -85.41197205, 0.49449801, -0.54355234, 0.51525682, 0.44105896, 0.51616943, -0.16564101, -0.63052410, 0.00000000, 0.00000000, 0.00000000, 0.00000000
1, 0.7275, 263, -0.52996099, -0.81698531, 0.78391773, 46.88285828, -191.00958252, -69.12358856, 0.87693655, -26.86348915, -49.45922089, 97.13362885, -1.49516201, -85.86478424, 0.49112466, -0.54299158, 0.51694357, 0.44353816, 0.50386846, -0.17493618, -0.65977675, 0.00000000, 0.00000000, 0.00000000, 0.00000000
1, 0.7300, 264, -0.49217448, -0.79401940, 0.79787803, 40.78518677, -192.90200806, -71.29745483, 0.87693655, -26.86348915, -49.45922089, 97.24654388, -1.25795591, -86.32106018, 0.48777097, -0.54236042, 0.51855510, 0.44612265, 0.47022089, -0.19775426, -0.67176992, 0.00000000, 0.00000000, 0.00000000, 0.00000000
1, 0.7325, 265, -0.47050467, -0.77950865, 0.80465442, 34.89682388, -194.34733582, -75.35433960, 0.87693655, -26.86348915, -49.45922089, 97.34284973, -1.00940752, -86.77915955, 0.48442087, -0.54168689, 0.52006572, 0.44882458, 0.45288822, -0.21213675, -0.67686856, 0.00000000, 0.00000000, 0.00000000, 0.00000000
1, 0.7350, 266, -0.47050467, -0.77950865, 0.80465442, 34.89682388, -194.34733582, -75.35433960, 2.25080395, -25.86962891, -48.17304993, 97.43715668, -0.76009285, -87.23680878, 0.48106039, -0.54100192, 0.52156526, 0.45151693, 0.45723894, -0.21199161, -0.67522770, 0.00000000, 0.00000000, 0.00000000, 0.00000000
1, 0.7375, 267, -0.42687112, -0.75202000, 0.79643208, 19.70451927, -200.53973389, -78.11631775, 2.25080395, -25.86962891, -48.17304993, 97.49162292, -0.50132018, -87.70855713, 0.47777110, -0.54011625, 0.52293622, 0.45447445, 0.41812167, -0.23940611, -0.66605657, 0.00000000, 0.00000000, 0.00000000, 0.00000000
1, 0.7400, 268, -0.42687112, -0.75202000, 0.79643208, 19.70451927, -200.53973389, -78.11631775, 2.25080395, -25.86962891, -48.17304993, 97.55667877, -0.25315332, -88.16424561, 0.47452465, -0.53929925, 0.52431750, 0.45724595, 0.42245278, -0.23928571, -0.66492707, 0.00000000, 0.00000000, 0.00000000, 0.00000000
1, 0.7425, 269, -0.38327035, -0.72560930, 0.77756214, 9.17229176, -204.91691589, -79.05046844, 2.25080395, -25.86962891, -48.17304993, 97.58062744, 0.01022821, -88.64603424, 0.47127876, -0.53824818, 0.52559429, 0.46036512, 0.38344899, -0.26565093, -0.64564157, 0.00000000, 0.00000000, 0.00000000, 0.00000000
1, 0.7450, 270, -0.36251369, -0.70902270, 0.76775336, 3.71484351, -205.65811157, -79.18255615, 2.25080395, -25.86962891, -48.17304993, 97.58872223, 0.27431515, -89.12956238, 0.46807620, -0.53712261, 0.52681023, 0.46354628, 0.36730143, -0.28220755, -0.63569427, 0.00000000, 0.00000000, 0.00000000, 0.00000000
1, 0.7475, 271, -0.34102505, -0.69305766, 0.75866675, -1.74390876, -206.19599915, -79.03212738, 3.80005836, -26.30809593, -47.06226349, 97.58092499, 0.53820479, -89.61447144, 0.46492213, -0.53592157, 0.52796596, 0.46678418, 0.35041836, -0.29815835, -0.62674695, 0.00000000, 0.00000000, 0.00000000, 0.00000000
1, 0.7500, 272, -0.32464468, -0.67498690, 0.74681228, -7.41866922, -206.66886902, -78.74024200, 3.80005836, -26.30809593, -47.06226349, 97.55668640, 0.80139542, -90.10073853, 0.46182111, -0.53464240, 0.52905983, 0.47007918, 0.33863121, -0.31623143, -0.61531866, 0.00000000, 0.00000000, 0.00000000, 0.00000000
1, 0.7525, 273, -0.30316442, -0.66225880, 0.73193282, -13.59685802, -207.08050537, -78.23603821, 3.80005836, -26.30809593, -47.06226349, 97.51476288, 1.06318545, -90.58837891, 0.45878184, -0.53327847, 0.53008807, 0.47343424, 0.32171944, -0.32898182, -0.60117435, 0.00000000, 0.00000000, 0.00000000, 0.00000000
1, 0.7550, 274, -0.27878144, -0.64791572, 0.71682781, -19.76827621, -208.25811768, -77.46249390, 3.80005836, -26.30809593, -47.06226349, 97.45511627, 1.32301462, -91.07946014, 0.45579791, -0.53181916, 0.53106087, 0.47685549, 0.30187041, -0.34336692, -0.58711362, 0.00000000, 0.00000000, 0.00000000, 0.00000000
1, 0.7575, 275, -0.25911865, -0.63301849, 0.70442927, -25.64734268, -209.98916626, -76.55752563, 3.80005836, -26.30809593, -47.06226349, 97.37843323, 1.58057356, -91.57549286, 0.45286059, -0.53026009, 0.53198749, 0.48034447, 0.28670135, -0.35832381, -0.57605636, 0.00000000, 0.00000000, 0.00000000, 0.00000000
1, 0.7600, 276, -0.24288253, -0.61630857, 0.68448925, -30.58780861, -212.19723511, -75.59215546, 4.79392004, -26.68810272, -46.79918289, 97.28699493, 1.83571279, -92.07775116, 0.44995394, -0.52860498, 0.53288239, 0.48389518, 0.27491629, -0.37510568, -0.55771542, 0.00000000, 0.00000000, 0.00000000, 0.00000000
1, 0.7625, 277, -0.22639666, -0.60035408, 0.66588140, -34.43902206, -215.64811707, -74.22756195, 4.79392004, -26.68810272, -46.79918289, 97.18338013, 2.08770013, -92.58949280, 0.44705480, -0.52684659, 0.53377295, 0.48750499, 0.26282585, -0.39113849, -0.54091960, 0.00000000, 0.00000000, 0.00000000, 0.00000000
1, 0.7650, 278, -0.21634258, -0.58415771, 0.64545733, -37.41920471, -220.00090027, -72.24858856, 4.79392004, -26.68810272, -46.79918289, 97.06961823, 2.33516169, -93.11322784, 0.44414875, -0.52497625, 0.53468323, 0.49116766, 0.25708753, -0.40741563, -0.52248490, 0.00000000, 0.00000000, 0.00000000, 0.00000000
1, 0.7675, 279, -0.20904468, -0.57149565, 0.63060594, -39.53465652, -224.55773926, -69.99543762, 4.79392004, -26.68810272, -46.79918289, 96.94779205, 2.57734036, -93.64955902, 0.44122607, -0.52299631, 0.53562659, 0.49487224, 0.25401258, -0.42015707, -0.50976396, 0.00000000, 0.00000000, 0.00000000, 0.00000000
1, 0.7700, 280, -0.20620456, -0.56538612, 0.61688536, -40.63735580, -229.80413818, -67.33531952, 4.79392004, -26.68810272, -46.79918289, 96.82029724, 2.81332850, -94.20035553, 0.43827125, -0.52090365, 0.53662413, 0.49861041, 0.25528666, -0.42634088, -0.49827337, 0.00000000, 0.00000000, 0.00000000, 0.00000000
1, 0.7725, 281, -0.20458497, -0.56264043, 0.59725028, -41.52603912, -234.84188843, -64.60311890, 6.40163708, -27.97427559, -46.12686157, 96.68763733, 3.04276204, -94.76511383, 0.43528473, -0.51870078, 0.53767586, 0.50237578, 0.25766626, -0.42915523, -0.48095876, 0.00000000, 0.00000000, 0.00000000, 0.00000000
1, 0.7750, 282, -0.20199853, -0.56218022, 0.57440114, -42.26554489, -240.50366211, -61.73998260, 6.40163708, -27.97427559, -46.12686157, 96.55003357, 3.26538610, -95.34545135, 0.43225867, -0.51637989, 0.53878975, 0.50617188, 0.25895947, -0.42967957, -0.46051621, 0.00000000, 0.00000000, 0.00000000, 0.00000000
1, 0.7775, 283, -0.19870302, -0.56430787, 0.54356802, -43.29525757, -245.82412720, -58.73139954, 6.40163708, -27.97427559, -46.12686157, 96.40678406, 3.48061132, -95.94054413, 0.42920160, -0.51393926, 0.53995979, 0.50999606, 0.25941384, -0.42761397, -0.43218797, 0.00000000, 0.00000000, 0.00000000, 0.00000000
1, 0.7800, 284, -0.19577752, -0.56738043, 0.50991070, -44.40204239, -250.52212524, -55.71412659, 6.40163708, -27.97427559, -46.12686157, 96.25774384, 3.68812203, -96.54885101, 0.42612153, -0.51138419, 0.54117817, 0.51384145, 0.26010296, -0.42460263, -0.40113571, 0.00000000, 0.00000000, 0.00000000, 0.00000000
1, 0.7825, 285, -0.19214305, -0.57110196, 0.47025433, -45.29706192, -254.79832458, -52.97158432, 6.40163708, -27.97427559, -46.12686157, 96.10352325, 3.88836193, -97.16922760, 0.42301771, -0.50872368, 0.54243910, 0.51770276, 0.25995573, -0.42094070, -0.36417457, 0.00000000, 0.00000000, 0.00000000, 0.00000000
1, 0.7850, 286, -0.18864353, -0.57379919, 0.42768121, -46.12293625, -258.79241943, -50.50519562, 7.51242304, -27.85735130, -46.44840622, 95.94430542, 4.08182526, -97.80090332, 0.41988942, -0.50596416, 0.54373670, 0.52157807, 0.25982460, -0.41830105, -0.32438275, 0.00000000, 0.00000000, 0.00000000, 0.00000000
1, 0.7875, 287, -0.19182868, -0.57197285, 0.38470215, -46.66401672, -262.50256348, -48.31565857, 7.51242304, -27.85735130, -46.44840622, 95.78089142, 4.26902056, -98.44309235, 0.41673350, -0.50311399, 0.54506749, 0.52546269, 0.26626825, -0.42018127, -0.28425780, 0.00000000, 0.00000000, 0.00000000, 0.00000000
1, 0.7900, 288, -0.19428131, -0.57186031, 0.34145102, -46.99784470, -265.23803711, -46.32339478, 7.51242304, -27.85735130, -46.44840622, 95.62178802, 4.44049549, -99.07390594, 0.41366082, -0.50026751, 0.54641181, 0.52919888, 0.27170506, -0.42034286, -0.24378440, 0.00000000, 0.00000000, 0.00000000, 0.00000000
1, 0.7925, 289, -0.19854487, -0.57311869, 0.29891577, -47.33388901, -267.82406616, -45.02850342, 7.51242304, -27.85735130, -46.44840622, 95.45152283, 4.61714172, -99.73153687, 0.41045743, -0.49727601, 0.54778099, 0.53308290, 0.27904204, -0.41912794, -0.20422111, 0.00000000, 0.00000000, 0.00000000, 0.00000000
1, 0.7950, 290, -0.19977325, -0.57583618, 0.25622979, -47.96628571, -269.43572998, -44.20901108, 7.51242304, -27.85735130, -46.44840622, 95.27727509, 4.79015446, -100.39405823, 0.40723622, -0.49423218, 0.54914618, 0.53696525, 0.28327984, -0.41644710, -0.16457585, 0.00000000, 0.00000000, 0.00000000, 0.00000000
1, 0.7975, 291, -0.19904080, -0.57802558, 0.22026870, -49.40683746, -269.03921509, -43.84922409, 9.73399544, -28.44197655, -45.95147705, 95.09747314, 4.96013737, -101.05638885, 0.40402466, -0.49115783, 0.55047488, 0.54083782, 0.28550342, -0.41428936, -0.13175160, 0.00000000, 0.00000000, 0.00000000, 0.00000000
1, 0.8000, 292, -0.18994771, -0.58197969, 0.18145296, -52.23335266, -266.35858154, -44.22327805, 9.73399544, -28.44197655, -45.95147705, 94.90918732, 5.12835264, -101.71263885, 0.40085649, -0.48807690, 0.55172253, 0.54469925, 0.27933484, -0.41036355, -0.09621939, 0.00000000, 0.00000000, 0.00000000, 0.00000000
1, 0.8025, 293, -0.17512615, -0.57961369, 0.15824132, -56.58622742, -261.80944824, -45.40628433, 9.73399544, -28.44197655, -45.95147705, 94.70909119, 5.29634285, -102.35800171, 0.39776117, -0.48500887, 0.55284649, 0.54855567, 0.26743320, -0.41275585, -0.07649579, 0.00000000, 0.00000000, 0.00000000, 0.00000000
1, 0.8050, 294, -0.15481146, -0.57556087, 0.14787497, -63.40081787, -255.32795715, -47.60414505, 9.73399544, -28.44197655, -45.95147705, 94.49155426, 5.46616507, -102.98748779, 0.39477602, -0.48196897, 0.55379027, 0.55242574, 0.25006935, -0.41683453, -0.06991952, 0.00000000, 0.00000000, 0.00000000, 0.00000000
1, 0.8075, 295, -0.12993628, -0.57045263, 0.12529570, -73.03879547, -246.57792664, -50.39147186, 9.73399544, -28.44197655, -45.95147705, 94.25013733, 5.63875580, -103.59538269, 0.39195120, -0.47896916, 0.55449480, 0.55632585, 0.22819237, -0.42197198, -0.05154396, 0.00000000, 0.00000000, 0.00000000, 0.00000000
1, 0.8100, 296, -0.09798903, -0.55190289, 0.09349853, -84.26251221, -237.35475159, -53.37702179, 10.49400711, -29.08506203, -45.95147705, 93.98108673, 5.81444025, -104.18058014, 0.38930637, -0.47600597, 0.55493516, 0.56027299, 0.19929603, -0.44055176, -0.02442911, 0.00000000, 0.00000000, 0.00000000, 0.00000000
1, 0.8125, 297, -0.06206442, -0.52984971, 0.05869190, -96.27932739, -227.86088562, -56.42625809, 10.49400711, -29.08506203, -45.95147705, 93.68259430, 5.99325466, -104.74250031, 0.38685194, -0.47307894, 0.55509919, 0.56427556, 0.16647580, -0.46263111, 0.00518555, 0.00000000, 0.00000000, 0.00000000, 0.00000000
1, 0.8150, 298, -0.02107682, -0.50123769, 0.02250895, -108.22500610, -218.23226929, -59.19412994, 10.49400711, -29.08506203, -45.95147705, 93.35495758, 6.17444324, -105.28100586, 0.38459155, -0.47018877, 0.55498946, 0.56832963, 0.12863269, -0.49125749, 0.03567258, 0.00000000, 0.00000000, 0.00000000, 0.00000000
1, 0.8175, 299, 0.02061693, -0.46829608, -0.01531994, -119.44152069, -209.77949524, -61.63062668, 10.49400711, -29.08506203, -45.95147705, 92.99980164, 6.35735416, -105.79919434, 0.38250694, -0.46732485, 0.55462825, 0.57243639, 0.09011226, -0.52419269, 0.06733000, 0.00000000, 0.00000000, 0.00000000, 0.00000000
1, 0.8200, 300, 0.07065265, -0.43110704, -0.05517823, -130.07759094, -201.94667053, -63.93755341, 10.49400711, -29.08506203, -45.95147705, 92.61849213, 6.54174185, -106.29878235, 0.38058549, -0.46448416, 0.55402905, 0.57659435, 0.04327434, -0.56134474, 0.10056554, 0.00000000, 0.00000000, 0.00000000, 0.00000000
1, 0.8225, 301, 0.12991619, -0.40120628, -0.09822194, -139.48374939, -195.00688171, -65.98085022, 12.24788094, -29.26045036, -47.38380432, 92.21392822, 6.72710323, -106.78213501, 0.37880635, -0.46166369, 0.55321681, 0.58079571, -0.01277570, -0.59116793, 0.13658626, 0.00000000, 0.00000000, 0.00000000, 0.00000000
1, 0.8250, 302, 0.19895613, -0.37604672, -0.19365877, -147.36883545, -189.31141663, -67.27664185, 12.24788094, -29.26045036, -47.38380432, 91.78964996, 6.91172075, -107.25257111, 0.37714773, -0.45885223, 0.55222827, 0.58502841, -0.07861628, -0.61620188, 0.22466160, 0.00000000, 0.00000000, 0.00000000, 0.00000000
1, 0.8275, 303, 0.32090837, -0.35150596, -0.23703511, -154.02299500, -184.45622253, -67.25900269, 12.24788094, -29.26045036, -47.38380432, 91.34854889, 7.09243059, -107.71235657, 0.37560332, -0.45603424, 0.55109870, 0.58927524, -0.19743802, -0.64056754, 0.26038897, 0.00000000, 0.00000000, 0.00000000, 0.00000000
1, 0.8300, 304, 0.37959316, -0.33056307, -0.28143674, -159.44197083, -180.48527527, -63.13091278, 12.24788094, -29.26045036, -47.38380432, 90.89353943, 7.25905514, -108.16393280, 0.37420249, -0.45315972, 0.54989165, 0.59349644, -0.25323755, -0.66130137, 0.29690579, 0.00000000, 0.00000000, 0.00000000, 0.00000000
1, 0.8325, 305, 0.37959316, -0.33056307, -0.28143674, -159.44197083, -180.48527527, -63.13091278, 12.24788094, -29.26045036, -47.38380432, 90.43704224, 7.42210960, -108.61698151, 0.37279063, -0.45027184, 0.54866838, 0.59770018, -0.25041497, -0.66102946, 0.28900009, 0.00000000, 0.00000000, 0.00000000, 0.00000000
1, 0.8350, 306, 0.48256493, -0.31272903, -0.35212693, -167.89358521, -173.80705261, -52.38184357, 13.65097904, -30.60508537, -48.58228683, 89.96025085, 7.55457163, -109.05477905, 0.37167099, -0.44726047, 0.54737014, 0.60183454, -0.35109460, -0.67859101, 0.35143885, 0.00000000, 0.00000000, 0.00000000, 0.00000000
1, 0.8375, 307, 0.48256493, -0.31272903, -0.35212693, -167.89358521, -173.80705261, -52.38184357, 13.65097904, -30.60508537, -48.58228683, 89.48231506, 7.68340635, -109.49379730, 0.37054050, -0.44423601, 0.54605591, 0.60595131, -0.34886581, -0.67825258, 0.34317234, 0.00000000, 0.00000000, 0.00000000, 0.00000000
1, 0.8400, 308, 0.55977201, -0.30929023, -0.42176273, -166.50444031, -173.97221375, -36.65209961, 13.65097904, -30.60508537, -48.58228683, 88.99137115, 7.79320669, -110.00195312, 0.36916396, -0.44076279, 0.54498416, 0.61027735, -0.42417395, -0.68132025, 0.40432182, 0.00000000, 0.00000000, 0.00000000, 0.00000000
1, 0.8425, 309, 0.58623129, -0.31414208, -0.45231837, -163.96479797, -175.26966858, -27.51584625, 13.65097904, -30.60508537, -48.58228683, 88.52107239, 7.85246468, -110.44564056, 0.36828530, -0.43742976, 0.54394060, 0.61412531, -0.44960874, -0.67615116, 0.42675069, 0.00000000, 0.00000000, 0.00000000, 0.00000000
1, 0.8450, 310, 0.61330175, -0.32046598, -0.48289779, -160.70606995, -176.56369019, -18.17207146, 13.65097904, -30.60508537, -48.58228683, 88.05814362, 7.88470411, -110.89241791, 0.36747515, -0.43398258, 0.54302520, 0.61785495, -0.47612169, -0.66951126, 0.44933230, 0.00000000, 0.00000000, 0.00000000, 0.00000000
1, 0.8475, 311, 0.63758171, -0.33527288, -0.52301055, -156.58723450, -177.44409180, -8.19604015, 13.65097904, -30.60508537, -48.58228683, 87.60516357, 7.88839293, -111.34071350, 0.36674020, -0.43042672, 0.54225224, 0.62144750, -0.50033784, -0.65439928, 0.48161989, 0.00000000, 0.00000000, 0.00000000, 0.00000000
1, 0.8500, 312, 0.65348965, -0.35275152, -0.56815720, -152.47421265, -177.56840515, 2.13996458, 14.00175381, -31.62817764, -50.24846649, 87.16267395, 7.86278391, -111.78814697, 0.36609560, -0.42676845, 0.54161882, 0.62489349, -0.51668870, -0.63663256, 0.51912177, 0.00000000, 0.00000000, 0.00000000, 0.00000000
1, 0.8525, 313, 0.64514071, -0.36532125, -0.61195707, -147.99926758, -177.96852112, 12.61092758, 14.00175381, -31.62817764, -50.24846649, 86.73177338, 7.80760574, -112.23492432, 0.36553788, -0.42300570, 0.54113311, 0.62819052, -0.50929368, -0.62379718, 0.55547464, 0.00000000, 0.00000000, 0.00000000, 0.00000000
1, 0.8550, 314, 0.62918508, -0.37780580, -0.64694172, -143.23864746, -178.28352356, 22.24282646, 14.00175381, -31.62817764, -50.24846649, 86.31346130, 7.72506428, -112.68051147, 0.36505529, -0.41915220, 0.54079026, 0.63134152, -0.49476558, -0.61106837, 0.58322704, 0.00000000, 0.00000000, 0.00000000, 0.00000000
1, 0.8575, 315, 0.60357827, -0.39173484, -0.66995347, -138.92100525, -177.27932739, 31.40448570, 14.00175381, -31.62817764, -50.24846649, 85.90731812, 7.61667204, -113.12130737, 0.36466211, -0.41522834, 0.54056919, 0.63434368, -0.47103351, -0.59691453, 0.59921271, 0.00000000, 0.00000000, 0.00000000, 0.00000000
1, 0.8600, 316, 0.56613880, -0.40663564, -0.68036950, -134.90043640, -175.35687256, 39.25070190, 14.00175381, -31.62817764, -50.24846649, 85.51309967, 7.48602915, -113.55488586, 0.36435494, -0.41126049, 0.54044640, 0.63720322, -0.43585443, -0.58180243, 0.60280454, 0.00000000, 0.00000000, 0.00000000, 0.00000000
1, 0.8625, 317, 0.52581394, -0.42721948, -0.68976682, -131.82350159, -172.58921814, 45.64271927, 13.59251690, -32.27126694, -51.62233353, 85.12879944, 7.33710766, -113.97915649, 0.36413300, -0.40727043, 0.54038894, 0.63993579, -0.39810699, -0.56101012, 0.60554558, 0.00000000, 0.00000000, 0.00000000, 0.00000000
1, 0.8650, 318, 0.48561478, -0.45230353, -0.70253265, -129.83180237, -169.25248718, 50.43738556, 13.59251690, -32.27126694, -51.62233353, 84.75197601, 7.17419434, -114.39282227, 0.36399120, -0.40327683, 0.54036283, 0.64256227, -0.36072844, -0.53570843, 0.61178100, 0.00000000, 0.00000000, 0.00000000, 0.00000000
1, 0.8675, 319, 0.44236997, -0.48073205, -0.72316408, -128.77557373, -166.04098511, 53.83460617, 13.59251690, -32.27126694, -51.62233353, 84.38024139, 7.00090694, -114.79639435, 0.36391735, -0.39928746, 0.54034370, 0.64510655, -0.32048500, -0.50704169, 0.62596774, 0.00000000, 0.00000000, 0.00000000, 0.00000000
1, 0.8700, 320, 0.40180847, -0.51527280, -0.74536097, -128.73309326, -162.19267273, 55.77503204, 13.59251690, -32.27126694, -51.62233353, 84.01122284, 6.82117462, -115.18854523, 0.36390775, -0.39532086, 0.54029959, 0.64758706, -0.28303766, -0.47222990, 0.64176548, 0.00000000, 0.00000000, 0.00000000, 0.00000000
1, 0.8725, 321, 0.36063689, -0.54652905, -0.76530671, -129.62979126, -157.98820496, 56.53437424, 13.59251690, -32.27126694, -51.62233353, 83.64260864, 6.63818502, -115.56864166, 0.36395830, -0.39138901, 0.54020429, 0.65002185, -0.24503782, -0.44065881, 0.65531880, 0.00000000, 0.00000000, 0.00000000, 0.00000000
1, 0.8750, 322, 0.32662871, -0.57937407, -0.78358072, -131.69097900, -152.25370789, 56.19922638, 13.62174797, -32.62203979, -52.52849960, 83.27182007, 6.45523405, -115.93315887, 0.36408156, -0.38751781, 0.54001993, 0.65242088, -0.21420187, -0.40744269, 0.66716391, 0.00000000, 0.00000000, 0.00000000, 0.00000000
1, 0.8775, 323, 0.29805881, -0.60703844, -0.80129778, -134.33758545, -145.46844482, 54.76121140, 13.62174797, -32.62203979, -52.52849960, 82.89754486, 6.27554035, -116.27983093, 0.36427930, -0.38373122, 0.53972083, 0.65479189, -0.18874887, -0.37934190, 0.67839414, 0.00000000, 0.00000000, 0.00000000, 0.00000000
1, 0.8800, 324, 0.28012043, -0.62348390, -0.81776506, -137.35031128, -137.98423767, 52.70440292, 13.62174797, -32.62203979, -52.52849960, 82.51887512, 6.10106087, -116.60718536, 0.36455378, -0.38004419, 0.53929132, 0.65713912, -0.17383796, -0.36238801, 0.68830252, 0.00000000, 0.00000000, 0.00000000, 0.00000000
1, 0.8825, 325, 0.27125296, -0.63507962, -0.83515429, -140.07363892, -130.76992798, 50.36322021, 13.62174797, -32.62203979, -52.52849960, 82.13631439, 5.93263531, -116.91607666, 0.36489522, -0.37645933, 0.53873575, 0.65946472, -0.16789396, -0.35021120, 0.69907004, 0.00000000, 0.00000000, 0.00000000, 0.00000000
1, 0.8850, 326, 0.27397633, -0.64122486, -0.86030442, -142.21696472, -124.10746765, 48.22248840, 13.62174797, -32.62203979, -52.52849960, 81.75102234, 5.76978636, -117.20790100, 0.36529511, -0.37297148, 0.53806883, 0.66176569, -0.17344473, -0.34341538, 0.71755594, 0.00000000, 0.00000000, 0.00000000, 0.00000000
1, 0.8875, 327, 0.29060650, -0.64208204, -0.88967896, -143.64074707, -117.44594574, 46.56896973, 13.03712368, -31.18971062, -53.90236664, 81.36469269, 5.61152029, -117.48258972, 0.36575434, -0.36958119, 0.53730524, 0.66403055, -0.19282353, -0.34184402, 0.74025333, 0.00000000, 0.00000000, 0.00000000, 0.00000000
1, 0.8900, 328, 0.31509650, -0.64209723, -0.92382240, -143.90766907, -111.47595215, 45.53175735, 13.03712368, -31.18971062, -53.90236664, 80.95798492, 5.47064924, -117.79946899, 0.36592674, -0.36602029, 0.53647697, 0.66657281, -0.21976073, -0.34097779, 0.76737911, 0.00000000, 0.00000000, 0.00000000, 0.00000000
1, 0.8925, 329, 0.34669432, -0.63451046, -0.96287423, -143.09039307, -106.06407928, 45.39265060, 13.03712368, -31.18971062, -53.90236664, 80.57727051, 5.31609726, -118.04406738, 0.36648515, -0.36280134, 0.53560096, 0.66872668, -0.25404403, -0.34775358, 0.79986072, 0.00000000, 0.00000000, 0.00000000, 0.00000000
1, 0.8950, 330, 0.38333842, -0.61823714, -1.00595796, -141.69586182, -100.79627228, 45.94910049, 13.03712368, -31.18971062, -53.90236664, 80.20201111, 5.16076422, -118.27429962, 0.36709645, -0.35965818, 0.53469926, 0.67080772, -0.29338792, -0.36318213, 0.83647275, 0.00000000, 0.00000000, 0.00000000, 0.00000000
1, 0.8975, 331, 0.42543897, -0.60206658, -1.04868793, -139.57722473, -96.08226013, 46.91532135, 13.03712368, -31.18971062, -53.90236664, 79.83383942, 5.00361538, -118.49140930, 0.36775470, -0.35658428, 0.53379029, 0.67280918, -0.33822045, -0.37848252, 0.87285691, 0.00000000, 0.00000000, 0.00000000, 0.00000000
1, 0.9000, 332, 0.46655953, -0.58525294, -1.09372783, -137.30894470, -91.93398285, 48.71265793, 12.01403046, -31.45279121, -55.15930939, 79.47297668, 4.84253407, -118.69638062, 0.36846468, -0.35356340, 0.53288764, 0.67472780, -0.38214210, -0.39440650, 0.91168058, 0.00000000, 0.00000000, 0.00000000, 0.00000000
1, 0.9025, 333, 0.50476795, -0.56989479, -1.14110577, -135.25254822, -88.20644379, 50.71481323, 12.01403046, -31.45279121, -55.15930939, 79.11876678, 4.67699480, -118.89018250, 0.36922655, -0.35058573, 0.53199327, 0.67656833, -0.42322975, -0.40885592, 0.95296025, 0.00000000, 0.00000000, 0.00000000, 0.00000000
1, 0.9050, 334, 0.53923237, -0.55594265, -1.18593132, -133.12347412, -84.54966736, 52.85563278, 12.01403046, -31.45279121, -55.15930939, 78.77133179, 4.50677633, -119.07287598, 0.37004116, -0.34764963, 0.53111017, 0.67832983, -0.46065539, -0.42188233, 0.99180782, 0.00000000, 0.00000000, 0.00000000, 0.00000000
1, 0.9075, 335, 0.57200217, -0.54103947, -1.22902811, -130.85250854, -80.61897278, 55.27947998, 12.01403046, -31.45279121, -55.15930939, 78.43103790, 4.33147573, -119.24364471, 0.37091520, -0.34475750, 0.53024042, 0.68000692, -0.49647573, -0.43584645, 1.02905357, 0.00000000, 0.00000000, 0.00000000, 0.00000000
1, 0.9100, 336, 0.60199577, -0.51989686, -1.26224804, -128.29216003, -76.89443207, 57.76951981, 12.01403046, -31.45279121, -55.15930939, 78.09852600, 4.15097380, -119.40292358, 0.37184539, -0.34190819, 0.52939057, 0.68159771, -0.52961099, -0.45603991, 1.05655921, 0.00000000, 0.00000000, 0.00000000, 0.00000000
1, 0.9125, 337, 0.62960094, -0.50024444, -1.28656542, -125.72859192, -73.58310699, 60.11406326, 11.75094986, -30.98509216, -57.03010941, 77.77366638, 3.96556401, -119.55178070, 0.37282509, -0.33909777, 0.52856320, 0.68310702, -0.56044418, -0.47473437, 1.07529831, 0.00000000, 0.00000000, 0.00000000, 0.00000000
1, 0.9500, 338, 0.75957918, -0.44471312, -1.46622276, -86.86357117, -14.90695667, 134.98913574, 8.59397793, -31.16047859, -60.30400467, 73.63732147, 0.10421681, -120.25637817, 0.39824355, -0.29911155, 0.51930147, 0.69444972, -0.75776029, -0.51478279, 1.18450618, 0.00000000, 0.00000000, 0.00000000, 0.00000000
1, 0.9525, 339, 0.74217027, -0.46582040, -1.47457528, -80.90117645, -13.35653114, 141.21531677, 8.59397793, -31.16047859, -60.30400467, 73.43498230, -0.24380444, -120.18835449, 0.40075707, -0.29660454, 0.51911002, 0.69422209, -0.74642545, -0.49266759, 1.18947423, 0.00000000, 0.00000000, 0.00000000, 0.00000000
1, 0.9550, 340, 0.70983350, -0.48995176, -1.49125290, -74.43589020, -11.86185265, 146.87962341, 8.59397793, -31.16047859, -60.30400467, 73.24832916, -0.60409039, -120.11149597, 0.40332636, -0.29410875, 0.51903349, 0.69385320, -0.72037679, -0.46755800, 1.20304453, 0.00000000, 0.00000000, 0.00000000, 0.00000000
1, 0.9575, 341, 0.66853690, -0.52095056, -1.51204991, -67.89674377, -10.76655102, 151.55906677, 8.59397793, -31.16047859, -60.30400467, 73.07743073, -0.97454625, -120.02751923, 0.40593162, -0.29163018, 0.51906949, 0.69335288, -0.68554509, -0.43560994, 1.22101259, 0.00000000, 0.00000000, 0.00000000, 0.00000000
1, 0.9600, 342, 0.62144643, -0.55801302, -1.53195012, -61.57253647, -9.93373585, 155.18658447, 8.59397793, -31.16047859, -60.30400467, 72.92167664, -1.35281932, -119.93780518, 0.40855563, -0.28917533, 0.51921004, 0.69273442, -0.64505547, -0.39762473, 1.23835313, 0.00000000, 0.00000000, 0.00000000, 0.00000000
1, 0.9625, 343, 0.57245326, -0.59438574, -1.54047179, -56.12048721, -8.12427235, 157.85104370, 7.16164875, -31.04355431, -60.88862991, 72.77876282, -1.73588848, -119.84082031, 0.41120052, -0.28676236, 0.51942670, 0.69200981, -0.60274571, -0.36034447, 1.24454546, 0.00000000, 0.00000000, 0.00000000, 0.00000000
1, 0.9650, 344, 0.52012312, -0.63633680, -1.53819621, -52.11583710, -5.34133625, 159.41435242, 7.16164875, -31.04355431, -60.88862991, 72.64492035, -2.12038755, -119.73507690, 0.41386995, -0.28440574, 0.51968163, 0.69119900, -0.55712241, -0.31748402, 1.24010754, 0.00000000, 0.00000000, 0.00000000, 0.00000000
1, 0.9675, 345, 0.47290671, -0.67714453, -1.52821529, -49.34415054, -1.38069201, 160.22834778, 7.16164875, -31.04355431, -60.88862991, 72.51684570, -2.50362468, -119.61836243, 0.41657388, -0.28212085, 0.51994073, 0.69031566, -0.51658928, -0.27575028, 1.22807634, 0.00000000, 0.00000000, 0.00000000, 0.00000000
1, 0.9700, 346, 0.43039900, -0.71191800, -1.51741850, -47.08110809, 3.13794017, 160.49203491, 7.16164875, -31.04355431, -60.88862991, 72.39310455, -2.88381791, -119.48979187, 0.41931349, -0.27991787, 0.52018750, 0.68936723, -0.48070985, -0.24002916, 1.21531653, 0.00000000, 0.00000000, 0.00000000, 0.00000000
1, 0.9725, 347, 0.39309871, -0.74252820, -1.50375783, -45.26025772, 8.90431404, 160.42437744, 7.16164875, -31.04355431, -60.88862991, 72.27229309, -3.25920558, -119.34665680, 0.42210084, -0.27781528, 0.52040160, 0.68835437, -0.44995189, -0.20844537, 1.19975615, 0.00000000, 0.00000000, 0.00000000, 0.00000000
1, 0.9750, 348, 0.36038640, -0.76589471, -1.48791862, -43.15692520, 15.23166466, 160.08367920, 5.61239386, -29.46506882, -61.29786682, 72.15485382, -3.62865376, -119.18785095, 0.42493665, -0.27582729, 0.52058005, 0.68727332, -0.42367607, -0.18408498, 1.18208742, 0.00000000, 0.00000000, 0.00000000, 0.00000000
1, 0.9775, 349, 0.33236605, -0.77988768, -1.47267854, -40.40886307, 21.84091377, 159.81462097, 5.61239386, -29.46506882, -61.29786682, 72.04219055, -3.99206090, -119.01271057, 0.42782125, -0.27396327, 0.52072996, 0.68611473, -0.40198427, -0.16908795, 1.16510963, 0.00000000, 0.00000000, 0.00000000, 0.00000000
1, 0.9800, 350, 0.30700636, -0.79190516, -1.45716941, -37.59117889, 28.66403961, 159.19853210, 5.61239386, -29.46506882, -61.29786682, 71.93428040, -4.34839725, -118.82099152, 0.43075177, -0.27223110, 0.52084786, 0.68488002, -0.38282734, -0.15605950, 1.14795399, 0.00000000, 0.00000000, 0.00000000, 0.00000000
1, 0.9825, 351, 0.28921080, -0.78905439, -1.44731343, -35.20965576, 36.10298157, 158.80203247, 5.61239386, -29.46506882, -61.29786682, 71.82970428, -4.69765043, -118.61109924, 0.43374106, -0.27063337, 0.52092224, 0.68356889, -0.37110847, -0.15788761, 1.13651836, 0.00000000, 0.00000000, 0.00000000, 0.00000000
1, 0.9850, 352, 0.27624476, -0.77919769, -1.43577158, -33.33108521, 43.53501892, 158.54696655, 5.61239386, -29.46506882, -61.29786682, 71.72702026, -5.04010868, -118.38295746, 0.43679407, -0.26916355, 0.52094585, 0.68218571, -0.36409786, -0.16670418, 1.12343872, 0.00000000, 0.00000000, 0.00000000, 0.00000000
1, 0.9875, 353, 0.26699880, -0.75887269, -1.42432153, -32.24437332, 51.09814835, 158.29626465, 5.61239386, -29.46506882, -61.29786682, 71.62401581, -5.37562275, -118.13624573, 0.43991712, -0.26781589, 0.52090508, 0.68073899, -0.36068362, -0.18596157, 1.11045659, 0.00000000, 0.00000000, 0.00000000, 0.00000000
1, 0.9900, 354, 0.26391897, -0.73687935, -1.41579139, -31.43956375, 58.03105545, 158.31771851, 4.56007004, -28.44197655, -61.64863968, 71.50481415, -5.69486618, -117.90946960, 0.44287950, -0.26641169, 0.52076381, 0.67947596, -0.36314958, -0.20679021, 1.10013175, 0.00000000, 0.00000000, 0.00000000, 0.00000000
1, 0.9925, 355, 0.26205525, -0.71671361, -1.40802479, -31.27895927, 64.67658234, 158.61712646, 4.56007004, -28.44197655, -61.64863968, 71.39794922, -6.01937103, -117.62857819, 0.44614416, -0.26526421, 0.52059340, 0.67791796, -0.36691990, -0.22581774, 1.09079003, 0.00000000, 0.00000000, 0.00000000, 0.00000000
1, 0.9950, 356, 0.26140893, -0.69825953, -1.40053129, -31.33079720, 70.97061157, 159.12229919, 4.56007004, -28.44197655, -61.64863968, 71.28764343, -6.33951712, -117.33148956, 0.44948164, -0.26419967, 0.52035624, 0.67630929, -0.37182865, -0.24308980, 1.08167529, 0.00000000, 0.00000000, 0.00000000, 0.00000000
1, 0.9975, 357, 0.25823203, -0.68084741, -1.38974929, -30.94190598, 76.15866852, 159.75090027, 4.56007004, -28.44197655, -61.64863968, 71.17512512, -6.65639830, -117.02071381, 0.45287821, -0.26320440, 0.52006972, 0.67464983, -0.37414694, -0.25928152, 1.06924760, 0.00000000, 0.00000000, 0.00000000, 0.00000000
1, 1.0000, 358, 0.24951370, -0.67062837, -1.37637758, -30.12035561, 81.21007538, 160.51609802, 4.56007004, -28.44197655, -61.64863968, 71.06134796, -6.97039318, -116.69647217, 0.45633155, -0.26227874, 0.51974154, 0.67293394, -0.37087005, -0.26824719, 1.05422044, 0.00000000, 0.00000000, 0.00000000, 0.00000000
1, 1.0025, 359, 0.23838943, -0.66049528, -1.35774779, -28.86719894, 86.26222229, 161.48971558, 2.48465347, -29.40660667, -62.02864456, 70.94725800, -7.28193521, -116.35852814, 0.45984197, -0.26142451, 0.51937878, 0.67115450, -0.36514133, -0.27709937, 1.03394222, 0.00000000, 0.00000000, 0.00000000, 0.00000000
1, 1.0050, 360, 0.21965426, -0.65353125, -1.33487415, -27.10986710, 91.24543762, 162.74053955, 2.48465347, -29.40660667, -62.02864456, 70.83396149, -7.59168768, -116.00684357, 0.46340945, -0.26064235, 0.51899016, 0.66930294, -0.35176688, -0.28276044, 1.00944459, 0.00000000, 0.00000000, 0.00000000, 0.00000000
1, 1.0075, 361, 0.19897933, -0.64911926, -1.31472397, -25.28249168, 96.43813324, 163.92401123, 2.48465347, -29.40660667, -62.02864456, 70.72143555, -7.89927006, -115.64093781, 0.46703470, -0.25993660, 0.51857358, 0.66737777, -0.33641127, -0.28584844, 0.98769534, 0.00000000, 0.00000000, 0.00000000, 0.00000000
1, 1.0100, 362, 0.17929491, -0.64999646, -1.29404557, -23.52688980, 101.62906647, 165.17765808, 2.48465347, -29.40660667, -62.02864456, 70.60935211, -8.20480537, -115.26072693, 0.47071862, -0.25930548, 0.51812750, 0.66537857, -0.32200688, -0.28362519, 0.96543658, 0.00000000, 0.00000000, 0.00000000, 0.00000000
1, 1.0125, 363, 0.16408138, -0.65006852, -1.27666366, -22.12875366, 106.60672760, 166.56944275, 2.48465347, -29.40660667, -62.02864456, 70.49674988, -8.50873566, -114.86658478, 0.47446233, -0.25874045, 0.51764888, 0.66330874, -0.31204152, -0.28217870, 0.94647765, 0.00000000, 0.00000000, 0.00000000, 0.00000000
1, 1.0150, 364, 0.14813821, -0.65485924, -1.26485109, -20.73014832, 111.51625061, 167.89036560, 0.78924292, -26.62964058, -62.90558243, 70.38351440, -8.81090546, -114.45871735, 0.47826362, -0.25824106, 0.51713723, 0.66116905, -0.30131203, -0.27598566, 0.93308973, 0.00000000, 0.00000000, 0.00000000, 0.00000000
1, 1.0175, 365, 0.13267909, -0.65976542, -1.25340796, -19.33179665, 116.49171448, 169.42198181, 0.78924292, -26.62964058, -62.90558243, 70.26945496, -9.11169052, -114.03675079, 0.48212576, -0.25780562, 0.51659220, 0.65895641, -0.29103863, -0.26964748, 0.92007065, 0.00000000, 0.00000000, 0.00000000, 0.00000000
1, 1.0200, 366, 0.11868411, -0.66748995, -1.24213314, -17.42844391, 121.26308441, 171.01916504, 0.78924292, -26.62964058, -62.90558243, 70.15576935, -9.41136742, -113.60107422, 0.48604396, -0.25743544, 0.51602262, 0.65666503, -0.28220576, -0.26046795, 0.90723777, 0.00000000, 0.00000000, 0.00000000, 0.00000000
1, 1.0225, 367, 0.07988924, -0.67589539, -1.21700978, -14.73013783, 125.55496979, 172.74710083, 0.78924292, -26.62964058, -62.90558243, 70.04446411, -9.71060944, -113.15270996, 0.49000964, -0.25713038, 0.51544482, 0.65428674, -0.24856108, -0.25059479, 0.88060856, 0.00000000, 0.00000000, 0.00000000, 0.00000000
1, 1.0250, 368, 0.06013753, -0.69540691, -1.20003819, -11.01925182, 129.09573364, 174.39160156, 0.78924292, -26.62964058, -62.90558243, 69.93828583, -10.00984764, -112.69348907, 0.49400699, -0.25689140, 0.51488000, 0.65181488, -0.23395497, -0.22961825, 0.86222756, 0.00000000, 0.00000000, 0.00000000, 0.00000000
1, 1.0275, 369, 0.06013753, -0.69540691, -1.20003819, -11.01925182, 129.09573364, 174.39160156, -0.90616781, -26.24963379, -63.16866302, 69.82955933, -10.30822945, -112.23328400, 0.49799320, -0.25664660, 0.51430357, 0.64932835, -0.23908105, -0.22811323, 0.86078966, 0.00000000, 0.00000000, 0.00000000, 0.00000000
1, 1.0300, 370, 0.01075594, -0.71351725, -1.16159987, 2.36538935, 137.02650452, 180.05059814, -0.90616781, -26.24963379, -63.16866302, 69.74740601, -10.61228561, -111.74824524, 0.50206190, -0.25659004, 0.51385015, 0.64657050, -0.19491802, -0.20861161, 0.82136071, 0.00000000, 0.00000000, 0.00000000, 0.00000000
1, 1.0325, 371, 0.01075594, -0.71351725, -1.16159987, 2.36538935, 137.02650452, 180.05059814, -0.90616781, -26.24963379, -63.16866302, 69.66255188, -10.91565132, -111.26226807, 0.50611848, -0.25652725, 0.51338428, 0.64379698, -0.20011957, -0.20717949, 0.82033908, 0.00000000, 0.00000000, 0.00000000, 0.00000000
1, 1.0350, 372, -0.04687259, -0.73322374, -1.12597978, 10.60470104, 140.92718506, 183.50364685, -0.90616781, -26.24963379, -63.16866302, 69.59320068, -11.22306538, -110.76300049, 0.51020843, -0.25656512, 0.51299751, 0.64085507, -0.14775655, -0.18609375, 0.78396404, 0.00000000, 0.00000000, 0.00000000, 0.00000000
1, 1.0450, 373, -0.18008356, -0.78683871, -1.07337177, 23.25519562, 142.31803894, 190.61503601, -2.22157264, -25.69424057, -63.60713196, 69.34832764, -12.47683334, -108.75127411, 0.52643764, -0.25676715, 0.51175404, 0.62852353, -0.03596123, -0.12680399, 0.72901487, 0.00000000, 0.00000000, 0.00000000, 0.00000000
1, 1.0475, 374, -0.22648494, -0.80860740, -1.05332518, 27.14303398, 141.91032410, 192.41522217, -2.22157264, -25.69424057, -63.60713196, 69.30366516, -12.80163860, -108.23705292, 0.53050119, -0.25687301, 0.51156718, 0.62520707, 0.00490866, -0.10360628, 0.70869458, 0.00000000, 0.00000000, 0.00000000, 0.00000000
1, 1.0500, 375, -0.27541682, -0.83166051, -1.03023827, 31.68026161, 141.16685486, 193.92901611, -2.22157264, -25.69424057, -63.60713196, 69.26737976, -13.13028717, -107.72232819, 0.53453690, -0.25699723, 0.51144511, 0.62180918, 0.04825076, -0.07913101, 0.68548560, 0.00000000, 0.00000000, 0.00000000, 0.00000000
1, 1.0525, 376, -0.32785812, -0.85390604, -1.00456560, 36.79053497, 140.57600403, 194.88345337, -4.23852682, -24.55422401, -63.98713684, 69.24089813, -13.46141529, -107.20729065, 0.53853536, -0.25715518, 0.51139027, 0.61832911, 0.09506771, -0.05548328, 0.65986317, 0.00000000, 0.00000000, 0.00000000, 0.00000000
1, 1.0550, 377, -0.38285884, -0.87247276, -0.97907579, 42.32815552, 140.34635925, 195.14199829, -4.23852682, -24.55422401, -63.98713684, 69.22525024, -13.79317093, -106.69174194, 0.54248846, -0.25736493, 0.51139987, 0.61476803, 0.14444122, -0.03554684, 0.63460886, 0.00000000, 0.00000000, 0.00000000, 0.00000000
1, 1.0575, 378, -0.43870923, -0.89261341, -0.95556343, 48.15128708, 140.26666260, 194.84213257, -4.23852682, -24.55422401, -63.98713684, 69.22117615, -14.12420654, -106.17585754, 0.54638851, -0.25763854, 0.51147228, 0.61112851, 0.19468457, -0.01407874, 0.61152643, 0.00000000, 0.00000000, 0.00000000, 0.00000000
1, 1.0600, 379, -0.49154279, -0.91389614, -0.93720704, 53.97393417, 140.12872314, 193.84207153, -4.23852682, -24.55422401, -63.98713684, 69.22891235, -14.45304012, -105.66048431, 0.55022538, -0.25798357, 0.51160371, 0.60741925, 0.24195644, 0.00848204, 0.59379482, 0.00000000, 0.00000000, 0.00000000, 0.00000000
1, 1.0625, 380, -0.53964376, -0.93772233, -0.91999906, 59.86703873, 140.06947327, 192.28330994, -4.23852682, -24.55422401, -63.98713684, 69.24876404, -14.77840519, -105.14600372, 0.55399197, -0.25840855, 0.51179057, 0.60364586, 0.28456250, 0.03352928, 0.57740819, 0.00000000, 0.00000000, 0.00000000, 0.00000000
1, 1.0650, 381, -0.58398294, -0.96227360, -0.90244329, 65.24641418, 141.19026184, 190.25267029, -6.48933077, -23.35574341, -64.42560577, 69.27886963, -15.09824944, -104.63005829, 0.55769819, -0.25892854, 0.51200861, 0.59981334, 0.32350808, 0.05924655, 0.56083691, 0.00000000, 0.00000000, 0.00000000, 0.00000000
1, 1.0675, 382, -0.63024348, -0.98557574, -0.87826580, 70.47531128, 143.01194763, 187.60255432, -6.48933077, -23.35574341, -64.42560577, 69.31863403, -15.41059017, -104.11155701, 0.56134439, -0.25955811, 0.51224315, 0.59592706, 0.36450925, 0.08365363, 0.53779268, 0.00000000, 0.00000000, 0.00000000, 0.00000000
1, 1.0700, 383, -0.67697167, -1.00810134, -0.84833217, 75.27305603, 144.76477051, 184.67315674, -6.48933077, -23.35574341, -64.42560577, 69.36714935, -15.71491337, -103.59096527, 0.56492871, -0.26029450, 0.51248729, 0.59199595, 0.40612087, 0.10722497, 0.50912511, 0.00000000, 0.00000000, 0.00000000, 0.00000000
1, 1.0725, 384, -0.72610849, -1.02912724, -0.81226081, 79.99796295, 146.52682495, 181.11465454, -6.48933077, -23.35574341, -64.42560577, 69.42443848, -16.00982475, -103.06887054, 0.56844366, -0.26114413, 0.51273566, 0.58802879, 0.45030642, 0.12922919, 0.47444889, 0.00000000, 0.00000000, 0.00000000, 0.00000000
1, 1.0750, 385, -0.77123564, -1.04617584, -0.76929367, 84.07656860, 148.14984131, 177.20669556, -6.48933077, -23.35574341, -64.42560577, 69.48915100, -16.29470634, -102.54594421, 0.57188702, -0.26210132, 0.51297921, 0.58403820, 0.49065784, 0.14719239, 0.43298322, 0.00000000, 0.00000000, 0.00000000, 0.00000000
