SensorId, TimeStamp (s), FrameNumber, AccX (g), AccY (g), AccZ (g), GyroX (deg/s), GyroY (deg/s), GyroZ (deg/s), MagX (uT), MagY (uT), MagZ (uT), EulerX (deg), EulerY (deg), EulerZ (deg), QuatW, QuatX, QuatY, QuatZ, LinAccX (g), LinAccY (g), LinAccZ (g), Pressure (kPa), Altitude (m), Temperature (degC), HeaveMotion (m)
1, -0.0000, 0, -0.88318843, -0.33072376, -0.32699886, -1.65836024, -1.69023156, -0.77919006, -26.54194641, 23.44343758, -71.44110107, 44.34994125, -63.61846542, -37.20879745, 0.80929881, -0.14826560, 0.56492895, 0.06251519, -0.01266641, 0.02010817, 0.00925359, 0.00000000, 0.00000000, 0.00000000, 0.00000000
1, 0.0025, 1, -0.88100392, -0.33108753, -0.32664233, -1.22995389, -1.34001505, -0.77584141, -26.77579689, 23.15112495, -71.49955750, 44.35438919, -63.61949158, -37.21719360, 0.80928522, -0.14825162, 0.56494844, 0.06254838, -0.01485902, 0.02045867, 0.00893280, 0.00000000, 0.00000000, 0.00000000, 0.00000000
1, 0.0050, 2, -0.88124681, -0.33145043, -0.32713616, -0.58348972, -1.26583290, -0.70700854, -26.77579689, 23.15112495, -71.49955750, 44.35994339, -63.62052917, -37.22502136, 0.80927044, -0.14824830, 0.56496769, 0.06257214, -0.01462406, 0.02080199, 0.00946826, 0.00000000, 0.00000000, 0.00000000, 0.00000000
1, 0.0075, 3, -0.88221395, -0.33110189, -0.32602906, -0.15576673, -0.84528041, -0.77264386, -26.77579689, 23.15112495, -71.49955750, 44.36531448, -63.62070084, -37.23145676, 0.80925953, -0.14825393, 0.56497991, 0.06259044, -0.01365823, 0.02042538, 0.00839204, 0.00000000, 0.00000000, 0.00000000, 0.00000000
1, 0.0100, 4, -0.88258630, -0.32961473, -0.32698312, 0.34531096, -0.56582695, -0.63061219, -26.77579689, 23.15112495, -71.49955750, 44.37044144, -63.62059021, -37.23621368, 0.80925059, -0.14826703, 0.56498832, 0.06259915, -0.01328504, 0.01890880, 0.00937289, 0.00000000, 0.00000000, 0.00000000, 0.00000000
1, 0.0125, 5, -0.88160270, -0.33172575, -0.32518449, 0.63053060, -0.28619090, -0.62775260, -26.77579689, 23.15112495, -71.49955750, 44.37528229, -63.62001038, -37.23985672, 0.80924422, -0.14828551, 0.56499219, 0.06260339, -0.01426411, 0.02098653, 0.00759393, 0.00000000, 0.00000000, 0.00000000, 0.00000000
1, 0.0150, 6, -0.88136512, -0.33061495, -0.32541236, 0.84386879, -0.00722627, -0.62466717, -27.36042023, 22.71265602, -71.82110596, 44.37965775, -63.61891556, -37.24238586, 0.80924058, -0.14830810, 0.56499141, 0.06260404, -0.01449341, 0.01983964, 0.00783342, 0.00000000, 0.00000000, 0.00000000, 0.00000000
1, 0.0175, 7, -0.88283259, -0.32754031, -0.32597327, 1.12861848, 0.34054881, -0.55094182, -27.36042023, 22.71265602, -71.82110596, 44.38326263, -63.61735916, -37.24326706, 0.80924034, -0.14833528, 0.56498516, 0.06259875, -0.01301366, 0.01672784, 0.00839636, 0.00000000, 0.00000000, 0.00000000, 0.00000000
1, 0.0200, 8, -0.88392526, -0.32778078, -0.32670790, 1.34185016, 0.62061191, -0.61778134, -27.36042023, 22.71265602, -71.82110596, 44.38666153, -63.61516571, -37.24331284, 0.80924278, -0.14836743, 0.56497407, 0.06259111, -0.01190400, 0.01692555, 0.00912497, 0.00000000, 0.00000000, 0.00000000, 0.00000000
1, 0.0225, 9, -0.88345414, -0.32675356, -0.32962587, 1.48283648, 0.96704423, -0.54360431, -27.36042023, 22.71265602, -71.82110596, 44.40065002, -63.57165909, -37.24126434, 0.80936235, -0.14864334, 0.56471997, 0.06268240, -0.01203740, 0.01534489, 0.01163286, 0.00000000, 0.00000000, 0.00000000, 0.00000000
1, 0.0250, 10, -0.88297915, -0.32525727, -0.33094811, 1.48236644, 1.03518307, -0.47273883, -27.36042023, 22.71265602, -71.82110596, 44.40242004, -63.56899643, -37.23910141, 0.80936962, -0.14867677, 0.56470221, 0.06266913, -0.01249159, 0.01380954, 0.01293490, 0.00000000, 0.00000000, 0.00000000, 0.00000000
1, 0.0275, 11, -0.88225710, -0.32365778, -0.33080292, 1.48326266, 0.96265018, -0.26390505, -27.59427071, 23.56036186, -71.85033417, 44.40368271, -63.56678772, -37.23637390, 0.80937642, -0.14870754, 0.56468642, 0.06265240, -0.01319677, 0.01217917, 0.01277220, 0.00000000, 0.00000000, 0.00000000, 0.00000000
1, 0.0300, 12, -0.88153845, -0.32228675, -0.33188319, 1.34133613, 0.75249594, -0.19635075, -27.59427071, 23.56036186, -71.85033417, 44.40509415, -63.56512451, -37.23420334, 0.80938095, -0.14873464, 0.56467426, 0.06263690, -0.01390219, 0.01078189, 0.01384125, 0.00000000, 0.00000000, 0.00000000, 0.00000000
1, 0.0325, 13, -0.88469446, -0.31973943, -0.33049354, 1.12763429, 0.54057187, -0.05864573, -27.59427071, 23.56036186, -71.85033417, 44.40621567, -63.56405640, -37.23231125, 0.80938393, -0.14875601, 0.56466609, 0.06262229, -0.01073802, 0.00821662, 0.01244578, 0.00000000, 0.00000000, 0.00000000, 0.00000000
1, 0.0350, 14, -0.88919163, -0.31595534, -0.33005980, 0.76959264, 0.39654246, 0.08045169, -27.59427071, 23.56036186, -71.85033417, 44.40645599, -63.56346893, -37.23043060, 0.80938643, -0.14876914, 0.56466043, 0.06261010, -0.00623632, 0.00442502, 0.01200703, 0.00000000, 0.00000000, 0.00000000, 0.00000000
1, 0.0375, 15, -0.89065742, -0.31349349, -0.33075231, 0.48400933, 0.18394691, 0.21838252, -27.59427071, 23.56036186, -71.85033417, 44.40623093, -63.56353760, -37.22882843, 0.80938745, -0.14877525, 0.56465852, 0.06259968, -0.00477105, 0.00196496, 0.01269889, 0.00000000, 0.00000000, 0.00000000, 0.00000000
1, 0.0400, 16, -0.89248872, -0.31005701, -0.33094034, 0.19774276, 0.04168744, 0.28732923, -28.00350761, 23.79421234, -72.11341858, 44.40554047, -63.56395340, -37.22751236, 0.80938774, -0.14877525, 0.56465900, 0.06259204, -0.00294298, -0.00146300, 0.01288796, 0.00000000, 0.00000000, 0.00000000, 0.00000000
1, 0.0425, 17, -0.89406115, -0.30910885, -0.32896742, -0.01570192, -0.23617864, 0.21431896, -28.00350761, 23.79421234, -72.11341858, 44.40556717, -63.56475449, -37.22757721, 0.80938518, -0.14877200, 0.56466389, 0.06258921, -0.00137687, -0.00240254, 0.01092419, 0.00000000, 0.00000000, 0.00000000, 0.00000000
1, 0.0450, 18, -0.89492524, -0.30626327, -0.33051068, -0.23019338, -0.37666813, 0.21311501, -28.00350761, 23.79421234, -72.11341858, 44.40555191, -63.56580734, -37.22820663, 0.80938148, -0.14876477, 0.56467086, 0.06258950, -0.00052083, -0.00523657, 0.01247898, 0.00000000, 0.00000000, 0.00000000, 0.00000000
1, 0.0475, 19, -0.89456248, -0.30565226, -0.33013549, -0.44421470, -0.58529663, 0.14104545, -28.00350761, 23.79421234, -72.11341858, 44.40599823, -63.56711197, -37.22994614, 0.80937588, -0.14875439, 0.56468105, 0.06259438, -0.00089353, -0.00583592, 0.01212067, 0.00000000, 0.00000000, 0.00000000, 0.00000000
1, 0.0500, 20, -0.89480370, -0.30396217, -0.32803175, -0.80016273, -1.00407934, 0.13653019, -28.00350761, 23.79421234, -72.11341858, 44.40703964, -63.56912613, -37.23334122, 0.80936641, -0.14873722, 0.56469822, 0.06260510, -0.00066829, -0.00750959, 0.01004535, 0.00000000, 0.00000000, 0.00000000, 0.00000000
1, 0.0525, 21, -0.89504963, -0.30140477, -0.32640356, -1.01187742, -1.48965800, 0.06069764, -27.56503868, 22.59573174, -72.43495941, 44.40954208, -63.57189941, -37.23896027, 0.80935138, -0.14871657, 0.56472337, 0.06262133, -0.00044376, -0.01005054, 0.00846166, 0.00000000, 0.00000000, 0.00000000, 0.00000000
1, 0.0550, 22, -0.89661914, -0.30034763, -0.32345140, -1.22348547, -1.97633541, 0.05478994, -27.56503868, 22.59573174, -72.43495941, 44.41323853, -63.57552338, -37.24651337, 0.80933106, -0.14869159, 0.56475675, 0.06264184, 0.00109756, -0.01108861, 0.00557000, 0.00000000, 0.00000000, 0.00000000, 0.00000000
1, 0.0575, 23, -0.89671642, -0.30032429, -0.31648558, -1.43451703, -2.53225040, 0.04794150, -27.56503868, 22.59573174, -72.43495941, 44.41840363, -63.58012009, -37.25627518, 0.80930459, -0.14866221, 0.56479967, 0.06266689, 0.00115913, -0.01109013, -0.00131628, 0.00000000, 0.00000000, 0.00000000, 0.00000000
1, 0.0775, 24, -0.88709146, -0.31065446, -0.31311974, -1.94148648, -2.24462104, -0.92566240, -27.24349594, 24.29114342, -72.25957489, 44.47032166, -63.61795425, -37.35997009, 0.80906183, -0.14837222, 0.56518751, 0.06299108, -0.00875944, -0.00063363, -0.00397787, 0.00000000, 0.00000000, 0.00000000, 0.00000000
1, 0.0800, 25, -0.88721359, -0.31028804, -0.31299165, -2.01556826, -1.96944058, -0.85174870, -27.21426392, 23.76498032, -71.55802155, 44.47530365, -63.61998367, -37.37115479, 0.80904287, -0.14834443, 0.56521678, 0.06303734, -0.00865304, -0.00100544, -0.00405627, 0.00000000, 0.00000000, 0.00000000, 0.00000000
1, 0.0825, 26, -0.88696802, -0.31223783, -0.31412178, -2.01798129, -1.69139183, -0.91791058, -27.21426392, 23.76498032, -71.55802155, 44.47953415, -63.62139130, -37.38150406, 0.80902719, -0.14831780, 0.56524080, 0.06308389, -0.00890940, 0.00093636, -0.00288752, 0.00000000, 0.00000000, 0.00000000, 0.00000000
1, 0.0850, 27, -0.88916105, -0.31244519, -0.31754199, -1.94725311, -1.55224514, -0.91625494, -27.21426392, 23.76498032, -71.55802155, 44.48344421, -63.62257004, -37.39130402, 0.80901313, -0.14829260, 0.56526256, 0.06312910, -0.00672561, 0.00113481, 0.00056690, 0.00000000, 0.00000000, 0.00000000, 0.00000000
1, 0.0875, 28, -0.89013845, -0.31290314, -0.32023537, -1.80395997, -1.48276317, -0.84584099, -27.21426392, 23.76498032, -71.55802155, 44.48720932, -63.62371063, -37.40053940, 0.80899960, -0.14826916, 0.56528354, 0.06317107, -0.00575709, 0.00158465, 0.00329369, 0.00000000, 0.00000000, 0.00000000, 0.00000000
1, 0.0900, 29, -0.89123350, -0.31495082, -0.32356378, -1.59015179, -1.27193773, -0.91362119, -27.21426392, 23.76498032, -71.55802155, 44.49100876, -63.62437439, -37.40922165, 0.80898780, -0.14825061, 0.56530082, 0.06321093, -0.00466722, 0.00361863, 0.00665021, 0.00000000, 0.00000000, 0.00000000, 0.00000000
1, 0.0925, 30, -0.89222091, -0.31318766, -0.32683411, -1.23121381, -1.20044136, -0.84388477, -27.09733963, 22.59573174, -72.08418274, 44.49521637, -63.62504959, -37.41735458, 0.80897570, -0.14823762, 0.56531757, 0.06324488, -0.00368488, 0.00183952, 0.00995079, 0.00000000, 0.00000000, 0.00000000, 0.00000000
1, 0.0950, 31, -0.88992977, -0.31264362, -0.32976323, -0.79934758, -1.26565015, -0.84618056, -27.09733963, 22.59573174, -72.08418274, 44.50072861, -63.62580872, -37.42573547, 0.80896157, -0.14823221, 0.56533611, 0.06327377, -0.00598204, 0.00127342, 0.01291853, 0.00000000, 0.00000000, 0.00000000, 0.00000000
1, 0.0975, 32, -0.88556635, -0.31371212, -0.33101049, -0.29707274, -1.18841684, -1.05659544, -27.09733963, 22.59573174, -72.08418274, 44.50799179, -63.62607574, -37.43466949, 0.80894643, -0.14823836, 0.56535327, 0.06329992, -0.01034749, 0.00230476, 0.01420832, 0.00000000, 0.00000000, 0.00000000, 0.00000000
1, 0.1000, 33, -0.88507885, -0.31432614, -0.33089870, -0.15525264, -0.97716439, -1.19407439, -27.09733963, 22.59573174, -72.08418274, 44.51534653, -63.62573242, -37.44331360, 0.80893320, -0.14824899, 0.56536645, 0.06332608, -0.01083237, 0.00287426, 0.01413256, 0.00000000, 0.00000000, 0.00000000, 0.00000000
1, 0.1025, 34, -0.88228273, -0.31555787, -0.32982349, -0.08730116, -0.49292842, -1.11779034, -27.09733963, 22.59573174, -72.08418274, 44.52088928, -63.62465286, -37.44974518, 0.80892587, -0.14826055, 0.56537139, 0.06334847, -0.01362008, 0.00406349, 0.01307542, 0.00000000, 0.00000000, 0.00000000, 0.00000000
1, 0.1050, 35, -0.88178533, -0.31754476, -0.32826635, -0.09101820, -0.01156111, -0.90143049, -27.30195808, 23.76498032, -73.04881287, 44.52394867, -63.62308502, -37.45340729, 0.80892479, -0.14827004, 0.56536859, 0.06336554, -0.01410532, 0.00601644, 0.01151759, 0.00000000, 0.00000000, 0.00000000, 0.00000000
1, 0.1075, 36, -0.88397378, -0.31449953, -0.32699329, -0.09473525, 0.46980622, -0.68507075, -27.30195808, 23.76498032, -73.04881287, 44.52451706, -63.62106705, -37.45430756, 0.80892992, -0.14827748, 0.56535798, 0.06337728, -0.01190126, 0.00294569, 0.01022488, 0.00000000, 0.00000000, 0.00000000, 0.00000000
1, 0.1100, 37, -0.88506395, -0.31390223, -0.32612652, -0.16997032, 0.88346165, -0.60927558, -27.30195808, 23.76498032, -73.04881287, 44.52315521, -63.61841965, -37.45326233, 0.80894053, -0.14828321, 0.56534016, 0.06338727, -0.01079053, 0.00232691, 0.00932121, 0.00000000, 0.00000000, 0.00000000, 0.00000000
1, 0.1125, 38, -0.88603377, -0.31293738, -0.32513216, -0.24405202, 1.15864193, -0.53536177, -27.30195808, 23.76498032, -73.04881287, 44.52037430, -63.61539841, -37.45083618, 0.80895489, -0.14828712, 0.56531763, 0.06339598, -0.00979728, 0.00134453, 0.00827825, 0.00000000, 0.00000000, 0.00000000, 0.00000000
1, 0.1150, 39, -0.88712084, -0.31271574, -0.32378241, -0.24567547, 1.36525583, -0.46261477, -27.30195808, 23.76498032, -73.04881287, 44.51660538, -63.61218262, -37.44731903, 0.80897182, -0.14829038, 0.56529170, 0.06340276, -0.00868529, 0.00110814, 0.00687185, 0.00000000, 0.00000000, 0.00000000, 0.00000000
1, 0.1175, 40, -0.88674647, -0.31336334, -0.32134911, -0.24588856, 1.36745298, -0.60246450, -27.24349594, 22.97573853, -72.28880310, 44.51332855, -63.60867310, -37.44434357, 0.80898863, -0.14829537, 0.56526524, 0.06341200, -0.00903243, 0.00173560, 0.00438169, 0.00000000, 0.00000000, 0.00000000, 0.00000000
1, 0.1200, 41, -0.88637644, -0.31326649, -0.31939322, -0.38907510, 1.29687274, -0.60295355, -27.24349594, 22.97573853, -72.28880310, 44.50993347, -63.60528946, -37.44164276, 0.80900514, -0.14829774, 0.56523991, 0.06342325, -0.00937641, 0.00162053, 0.00236988, 0.00000000, 0.00000000, 0.00000000, 0.00000000
1, 0.1225, 42, -0.88297933, -0.31386873, -0.31916502, -0.46221659, 1.43577492, -0.67077100, -27.24349594, 22.97573853, -72.28880310, 44.50668716, -63.58462143, -37.43583679, 0.80907720, -0.14838308, 0.56510770, 0.06348150, -0.01261288, 0.00201425, 0.00189349, 0.00000000, 0.00000000, 0.00000000, 0.00000000
1, 0.1250, 43, -0.88054383, -0.31523550, -0.31735796, -0.46279326, 1.50501227, -0.66983026, -27.24349594, 22.97573853, -72.28880310, 44.50262833, -63.58077621, -37.43259048, 0.80909628, -0.14838526, 0.56507832, 0.06349416, -0.01501853, 0.00336123, 0.00002134, 0.00000000, 0.00000000, 0.00000000, 0.00000000
1, 0.1275, 44, -0.87956244, -0.31842837, -0.31728667, -0.75010651, 1.50012934, -0.52907711, -27.24349594, 22.97573853, -72.28880310, 44.49736404, -63.57717896, -37.42881012, 0.80911648, -0.14838061, 0.56504911, 0.06350789, -0.01597196, 0.00654382, -0.00011873, 0.00000000, 0.00000000, 0.00000000, 0.00000000
1, 0.1300, 45, -0.87882185, -0.31932703, -0.31436920, -1.03836012, 1.63152480, -0.24659292, -26.60040855, 22.77112007, -72.72727203, 44.48990250, -63.57383728, -37.42337418, 0.80913955, -0.14836758, 0.56501806, 0.06351976, -0.01668650, 0.00744721, -0.00311404, 0.00000000, 0.00000000, 0.00000000, 0.00000000
1, 0.1325, 46, -0.87930888, -0.31701833, -0.31262210, -1.25112152, 1.28332257, -0.25061914, -26.60040855, 22.77112007, -72.72727203, 44.48315048, -63.57109833, -37.41933060, 0.80915916, -0.14835037, 0.56499290, 0.06353546, -0.01617831, 0.00514606, -0.00492835, 0.00000000, 0.00000000, 0.00000000, 0.00000000
1, 0.1350, 47, -0.88112116, -0.31741461, -0.31128028, -1.68125784, 1.14081883, -0.25114557, -26.60040855, 22.77112007, -72.72727203, 44.47582626, -63.56863403, -37.41585159, 0.80917829, -0.14832537, 0.56496960, 0.06355692, -0.01434690, 0.00555581, -0.00633764, 0.00000000, 0.00000000, 0.00000000, 0.00000000
1, 0.1375, 48, -0.88087445, -0.31694618, -0.30956283, -2.10966420, 0.79060227, -0.25449422, -26.60040855, 22.77112007, -72.72727203, 44.46868134, -63.56676102, -37.41375351, 0.80919451, -0.14829236, 0.56495190, 0.06358486, -0.01457906, 0.00510669, -0.00811467, 0.00000000, 0.00000000, 0.00000000, 0.00000000
1, 0.1400, 49, -0.88305116, -0.31855246, -0.30970520, -2.39593077, 0.64834279, -0.18554749, -26.60040855, 22.77112007, -72.72727203, 44.46107483, -63.56529999, -37.41194916, 0.80921000, -0.14825323, 0.56493652, 0.06361558, -0.01239097, 0.00673893, -0.00803024, 0.00000000, 0.00000000, 0.00000000, 0.00000000
1, 0.1425, 50, -0.88147533, -0.32036272, -0.31156909, -2.61225915, 0.71666449, -0.25385404, -27.59427071, 23.18035698, -72.23033905, 44.45292664, -63.56357956, -37.41014862, 0.80922693, -0.14821124, 0.56491941, 0.06364994, -0.01395345, 0.00857550, -0.00622994, 0.00000000, 0.00000000, 0.00000000, 0.00000000
1, 0.1450, 51, -0.88415235, -0.31972757, -0.31387562, -2.68424702, 0.71709150, -0.32355303, -27.59427071, 23.18035698, -72.23033905, 44.44485092, -63.56171417, -37.40862274, 0.80924398, -0.14816885, 0.56490195, 0.06368642, -0.01126194, 0.00796491, -0.00398794, 0.00000000, 0.00000000, 0.00000000, 0.00000000
1, 0.1475, 52, -0.88450944, -0.32181528, -0.31415126, -2.61074209, 0.51114887, -0.39652598, -27.59427071, 23.18035698, -72.23033905, 44.43794250, -63.56010437, -37.40819550, 0.80925822, -0.14812836, 0.56488800, 0.06372394, -0.01089233, 0.01007334, -0.00376788, 0.00000000, 0.00000000, 0.00000000, 0.00000000
1, 0.1500, 53, -0.88281798, -0.32154244, -0.31549472, -2.54012012, 0.65139395, -0.46479517, -27.59427071, 23.18035698, -72.23033905, 44.43096161, -63.55813599, -37.40749359, 0.80927384, -0.14809014, 0.56487149, 0.06376134, -0.01256848, 0.00981760, -0.00248444, 0.00000000, 0.00000000, 0.00000000, 0.00000000
1, 0.1525, 54, -0.88025039, -0.32586023, -0.31361088, -2.39656997, 0.65493387, -0.60509658, -27.59427071, 23.18035698, -72.23033905, 44.42483902, -63.55590057, -37.40734863, 0.80928880, -0.14805618, 0.56485462, 0.06379944, -0.01511872, 0.01414502, -0.00442645, 0.00000000, 0.00000000, 0.00000000, 0.00000000
1, 0.1550, 55, -0.87988329, -0.32756883, -0.31437099, -2.32735896, 0.99959600, -0.46076897, -27.27272606, 22.12803268, -72.49342346, 44.41716385, -63.55332184, -37.40526962, 0.80930799, -0.14802215, 0.56483227, 0.06383303, -0.01546574, 0.01586792, -0.00373700, 0.00000000, 0.00000000, 0.00000000, 0.00000000
1, 0.1575, 56, -0.87952650, -0.32802406, -0.31682265, -2.25652361, 1.13764417, -0.38918847, -27.27272606, 22.12803268, -72.49342346, 44.40891266, -63.55060196, -37.40235901, 0.80932873, -0.14798868, 0.56480777, 0.06386403, -0.01580143, 0.01633931, -0.00136051, 0.00000000, 0.00000000, 0.00000000, 0.00000000
1, 0.1600, 57, -0.87964201, -0.33022830, -0.31746715, -2.40238070, 1.41105449, -0.24512409, -27.27272606, 22.12803268, -72.49342346, 44.39883041, -63.54764938, -37.39780807, 0.80935353, -0.14795125, 0.56477875, 0.06389341, -0.01566297, 0.01856733, -0.00080374, 0.00000000, 0.00000000, 0.00000000, 0.00000000
1, 0.1625, 58, -0.87964201, -0.33022830, -0.31746715, -2.40238070, 1.41105449, -0.24512409, -27.27272606, 22.12803268, -72.49342346, 44.38874817, -63.54471588, -37.39325714, 0.80937833, -0.14791381, 0.56474972, 0.06392279, -0.01564014, 0.01859111, -0.00089148, 0.00000000, 0.00000000, 0.00000000, 0.00000000
1, 0.1650, 59, -0.88038337, -0.32896265, -0.32025680, -2.18541336, 1.33614147, 0.24273156, -27.27272606, 22.12803268, -72.49342346, 44.37771606, -63.54274750, -37.38703537, 0.80940217, -0.14787409, 0.56472385, 0.06394111, -0.01488346, 0.01736534, 0.00181624, 0.00000000, 0.00000000, 0.00000000, 0.00000000
1, 0.1675, 60, -0.88038337, -0.32896265, -0.32025680, -2.18541336, 1.33614147, 0.24273156, -27.88658333, 22.56650162, -72.34726715, 44.36668777, -63.54079437, -37.38082123, 0.80942601, -0.14783436, 0.56469798, 0.06395944, -0.01486826, 0.01740518, 0.00173435, 0.00000000, 0.00000000, 0.00000000, 0.00000000
1, 0.1700, 61, -0.88124573, -0.32697222, -0.32217970, -1.67846251, 0.92212093, 0.44528067, -27.88658333, 22.56650162, -72.34726715, 44.35765457, -63.53992081, -37.37541580, 0.80944341, -0.14780052, 0.56468081, 0.06396928, -0.01399911, 0.01545549, 0.00359845, 0.00000000, 0.00000000, 0.00000000, 0.00000000
1, 0.1725, 62, -0.88258606, -0.32549658, -0.32264316, -1.60683787, 0.98873425, 0.65577018, -27.88658333, 22.56650162, -72.34726715, 44.37426376, -63.51176453, -37.38015366, 0.80950749, -0.14800274, 0.56452864, 0.06403396, -0.01243973, 0.01357997, 0.00383788, 0.00000000, 0.00000000, 0.00000000, 0.00000000
1, 0.1750, 63, -0.88307399, -0.32306325, -0.32101634, -1.31736851, 0.78151041, 0.79189420, -27.88658333, 22.56650162, -72.34726715, 44.36538696, -63.51176453, -37.37391281, 0.80952245, -0.14797081, 0.56451553, 0.06403367, -0.01195180, 0.01119584, 0.00216255, 0.00000000, 0.00000000, 0.00000000, 0.00000000
1, 0.1775, 64, -0.88381088, -0.32060492, -0.32122159, -1.31542540, 0.57160068, 0.92892170, -27.88658333, 22.56650162, -72.34726715, 44.35676193, -63.51235962, -37.36795044, 0.80953503, -0.14793694, 0.56450659, 0.06403162, -0.01121950, 0.00879216, 0.00232759, 0.00000000, 0.00000000, 0.00000000, 0.00000000
1, 0.1800, 65, -0.88406163, -0.31621084, -0.31907645, -1.17202556, 0.63998413, 1.06926048, -27.21426392, 23.50189972, -71.87957001, 44.34775925, -63.51308441, -37.36115646, 0.80954826, -0.14790398, 0.56449717, 0.06402511, -0.01097441, 0.00445610, 0.00014159, 0.00000000, 0.00000000, 0.00000000, 0.00000000
1, 0.1825, 66, -0.88503265, -0.31524077, -0.31844866, -1.31683576, 0.77601784, 1.14151835, -27.21426392, 23.50189972, -71.87957001, 44.33765411, -63.51370621, -37.35355377, 0.80956352, -0.14786774, 0.56448525, 0.06401866, -0.01000822, 0.00354892, -0.00053436, 0.00000000, 0.00000000, 0.00000000, 0.00000000
1, 0.1850, 67, -0.88734967, -0.31071252, -0.31776360, -1.46190262, 0.97799337, 1.42449176, -27.21426392, 23.50189972, -71.87957001, 44.32545853, -63.51441574, -37.34400940, 0.80958235, -0.14782576, 0.56447059, 0.06400836, -0.00769675, -0.00090334, -0.00127745, 0.00000000, 0.00000000, 0.00000000, 0.00000000
1, 0.1875, 68, -0.88748085, -0.30897668, -0.31883651, -1.60498273, 0.90631461, 1.49392748, -27.21426392, 23.50189972, -71.87957001, 44.31290436, -63.51541138, -37.33446121, 0.80960077, -0.14778028, 0.56445712, 0.06399881, -0.00757331, -0.00255853, -0.00026184, 0.00000000, 0.00000000, 0.00000000, 0.00000000
1, 0.1900, 69, -0.89235705, -0.30464706, -0.32230398, -2.17856240, 0.75917220, 1.70362747, -27.21426392, 23.50189972, -71.87957001, 44.29867935, -63.51703262, -37.32464981, 0.80961955, -0.14772189, 0.56444615, 0.06399310, -0.00270975, -0.00679130, 0.00314635, 0.00000000, 0.00000000, 0.00000000, 0.00000000
1, 0.1925, 70, -0.89431804, -0.30178231, -0.32555541, -2.82182384, 0.33550671, 1.83986521, -27.24349594, 23.29728127, -72.52265167, 44.28383636, -63.51962662, -37.31594849, 0.80963534, -0.14764985, 0.56444222, 0.06399427, -0.00076908, -0.00954488, 0.00634640, 0.00000000, 0.00000000, 0.00000000, 0.00000000
1, 0.1950, 71, -0.89845616, -0.29967380, -0.32820302, -3.24918342, -0.15208642, 1.76471007, -27.24349594, 23.29728127, -72.52265167, 44.26990128, -63.52300262, -37.30945587, 0.80964631, -0.14757051, 0.56444597, 0.06400359, 0.00334305, -0.01153919, 0.00895569, 0.00000000, 0.00000000, 0.00000000, 0.00000000
1, 0.1975, 72, -0.90065110, -0.29611781, -0.32826629, -3.39027643, -0.49742013, 1.62060845, -27.24349594, 23.29728127, -72.52265167, 44.25734329, -63.52671051, -37.30490494, 0.80965346, -0.14748998, 0.56445533, 0.06401832, 0.00550890, -0.01498467, 0.00899237, 0.00000000, 0.00000000, 0.00000000, 0.00000000
1, 0.2000, 73, -0.89955640, -0.29491669, -0.32592839, -3.24478316, -0.70378983, 1.61733460, -27.24349594, 23.29728127, -72.52265167, 44.24588013, -63.53079987, -37.30116272, 0.80965739, -0.14741175, 0.56446838, 0.06403197, 0.00438249, -0.01607740, 0.00663796, 0.00000000, 0.00000000, 0.00000000, 0.00000000
1, 0.2025, 74, -0.89979380, -0.29312104, -0.32260108, -3.02898836, -0.76661897, 1.33601677, -27.24349594, 23.29728127, -72.52265167, 44.23619080, -63.53448868, -37.29878998, 0.80965966, -0.14734073, 0.56448203, 0.06404815, 0.00459117, -0.01777864, 0.00329951, 0.00000000, 0.00000000, 0.00000000, 0.00000000
1, 0.2050, 75, -0.90038443, -0.29294404, -0.31795365, -2.81528616, -0.55469483, 1.19831192, -27.97427559, 23.64805603, -71.17801666, 44.22678375, -63.53759003, -37.29614639, 0.80966353, -0.14727548, 0.56449175, 0.06406344, 0.00515771, -0.01786966, -0.00136447, 0.00000000, 0.00000000, 0.00000000, 0.00000000
1, 0.2075, 76, -0.90025437, -0.29237407, -0.31476805, -2.96235871, -0.20545591, 0.92376792, -27.97427559, 23.64805603, -71.17801666, 44.21677399, -63.53956985, -37.29323959, 0.80967176, -0.14721148, 0.56449419, 0.06408425, 0.00501222, -0.01836226, -0.00458220, 0.00000000, 0.00000000, 0.00000000, 0.00000000
1, 0.2100, 77, -0.89988506, -0.29300085, -0.31380081, -3.25366497, 0.21057917, 0.72054124, -27.97427559, 23.64805603, -71.17801666, 44.20530701, -63.54043961, -37.28951263, 0.80968583, -0.14714542, 0.56448823, 0.06411092, 0.00463617, -0.01766199, -0.00560176, 0.00000000, 0.00000000, 0.00000000, 0.00000000
1, 0.2125, 78, -0.90073359, -0.29324713, -0.31404725, -3.54313445, 0.41780305, 0.58441722, -27.97427559, 23.64805603, -71.17801666, 44.19288254, -63.54071045, -37.28553391, 0.80970317, -0.14707622, 0.56447780, 0.06414289, 0.00548256, -0.01734347, -0.00541961, 0.00000000, 0.00000000, 0.00000000, 0.00000000
1, 0.2150, 79, -0.90182537, -0.29458165, -0.31565404, -3.76014566, 0.55646086, 0.44712645, -27.97427559, 23.64805603, -71.17801666, 44.17992783, -63.54049301, -37.28155899, 0.80972266, -0.14700505, 0.56446415, 0.06417951, 0.00657606, -0.01593903, -0.00388545, 0.00000000, 0.00000000, 0.00000000, 0.00000000
1, 0.2175, 80, -0.90303522, -0.29677710, -0.31727371, -3.90538216, 0.69688863, 0.23968515, -27.97427559, 23.64805603, -71.17801666, 44.16685104, -63.53966522, -37.27786255, 0.80974412, -0.14693408, 0.56444710, 0.06422114, 0.00779236, -0.01367978, -0.00234601, 0.00000000, 0.00000000, 0.00000000, 0.00000000
1, 0.2200, 81, -0.90365207, -0.29625180, -0.31983057, -3.97988963, 0.97646290, 0.03389943, -27.21426392, 23.47266769, -72.11341858, 44.15335846, -63.53797150, -37.27390671, 0.80976897, -0.14686473, 0.56442434, 0.06426641, 0.00842237, -0.01414827, 0.00011870, 0.00000000, 0.00000000, 0.00000000, 0.00000000
1, 0.2225, 82, -0.90400785, -0.29991996, -0.32135233, -3.90811491, 0.97823286, -0.03625125, -27.21426392, 23.47266769, -72.11341858, 44.11963272, -63.54624557, -37.25939560, 0.80979425, -0.14666615, 0.56443620, 0.06429685, 0.00871384, -0.01020178, 0.00155070, 0.00000000, 0.00000000, 0.00000000, 0.00000000
1, 0.2250, 83, -0.90449739, -0.30050901, -0.32331553, -3.69415569, 1.12421513, -0.38467154, -27.21426392, 23.47266769, -72.11341858, 44.10785675, -63.54356766, -37.25655365, 0.80981934, -0.14660721, 0.56440991, 0.06434554, 0.00922418, -0.00957626, 0.00342000, 0.00000000, 0.00000000, 0.00000000, 0.00000000
1, 0.2275, 84, -0.90474069, -0.30038548, -0.32343534, -3.55060577, 1.12775505, -0.52497286, -27.21426392, 23.47266769, -72.11341858, 44.09692764, -63.54062271, -37.25426102, 0.80984390, -0.14655252, 0.56438333, 0.06439493, 0.00949037, -0.00967070, 0.00344768, 0.00000000, 0.00000000, 0.00000000, 0.00000000
1, 0.2300, 85, -0.90474141, -0.30147254, -0.32479614, -3.33607030, 1.20449960, -0.87433392, -27.21426392, 23.47266769, -72.11341858, 44.08753204, -63.53692627, -37.25307846, 0.80986816, -0.14650603, 0.56435454, 0.06444760, 0.00951982, -0.00857121, 0.00471622, 0.00000000, 0.00000000, 0.00000000, 0.00000000
1, 0.2325, 86, -0.90328985, -0.30109009, -0.32528204, -3.19388652, 1.34871149, -1.15260339, -27.62350082, 22.91727448, -71.44110107, 44.07899094, -63.53250885, -37.25246048, 0.80989337, -0.14646567, 0.56432253, 0.06450298, 0.00810266, -0.00895405, 0.00510627, 0.00000000, 0.00000000, 0.00000000, 0.00000000
1, 0.2350, 87, -0.90171325, -0.30035919, -0.32429653, -2.98039770, 1.56283259, -1.43015826, -27.62350082, 22.91727448, -71.44110107, 44.07123566, -63.52722168, -37.25212479, 0.80992013, -0.14643283, 0.56428617, 0.06455995, 0.00656718, -0.00969920, 0.00401938, 0.00000000, 0.00000000, 0.00000000, 0.00000000
1, 0.2375, 88, -0.90011966, -0.30369470, -0.32264009, -3.05385947, 1.70503032, -1.70775032, -27.62350082, 22.91727448, -71.44110107, 44.06380463, -63.52118301, -37.25235748, 0.80994850, -0.14640230, 0.56424630, 0.06462228, 0.00502056, -0.00638768, 0.00225499, 0.00000000, 0.00000000, 0.00000000, 0.00000000
1, 0.2400, 89, -0.89890665, -0.30332905, -0.32202598, -3.12789679, 1.91646588, -1.98440146, -27.62350082, 22.91727448, -71.44110107, 44.05646133, -63.51428604, -37.25288010, 0.80997932, -0.14637415, 0.56420171, 0.06468973, 0.00386125, -0.00678706, 0.00152382, 0.00000000, 0.00000000, 0.00000000, 0.00000000
1, 0.2425, 90, -0.89804703, -0.30349141, -0.31897530, -3.27266312, 1.98875451, -2.26270819, -27.62350082, 22.91727448, -71.44110107, 44.04950333, -63.50677109, -37.25424576, 0.81001103, -0.14634697, 0.56415474, 0.06476364, 0.00305998, -0.00666729, -0.00164878, 0.00000000, 0.00000000, 0.00000000, 0.00000000
1, 0.2450, 91, -0.89622837, -0.30457526, -0.31997317, -3.34753442, 2.33536959, -2.32770348, -26.95118332, 23.47266769, -72.75650024, 44.04138565, -63.49854279, -37.25452805, 0.81004703, -0.14631975, 0.56410128, 0.06483851, 0.00130558, -0.00562748, -0.00078735, 0.00000000, 0.00000000, 0.00000000, 0.00000000
1, 0.2475, 92, -0.89560634, -0.30778718, -0.31867948, -3.41962910, 2.33689499, -2.46732736, -26.95118332, 23.47266769, -72.75650024, 44.03358841, -63.49005127, -37.25536728, 0.81008333, -0.14629300, 0.56404734, 0.06491675, 0.00074959, -0.00246403, -0.00221854, 0.00000000, 0.00000000, 0.00000000, 0.00000000
1, 0.2500, 93, -0.89293826, -0.30777997, -0.31831825, -3.34659410, 2.19909120, -2.46943474, -26.95118332, 23.47266769, -72.75650024, 44.02645874, -63.48182297, -37.25675201, 0.81011754, -0.14626735, 0.56399584, 0.06499456, -0.00185430, -0.00252083, -0.00271100, 0.00000000, 0.00000000, 0.00000000, 0.00000000
1, 0.2525, 94, -0.89257801, -0.30812788, -0.31966844, -3.56119204, 2.05970001, -2.54056382, -26.95118332, 23.47266769, -72.75650024, 44.01953125, -63.47368622, -37.25896072, 0.81015068, -0.14623860, 0.56394625, 0.06507671, -0.00215131, -0.00222221, -0.00148946, 0.00000000, 0.00000000, 0.00000000, 0.00000000
1, 0.2550, 95, -0.88880402, -0.30914578, -0.31602585, -3.99043202, 1.84466338, -2.33225608, -26.95118332, 23.47266769, -72.75650024, 44.01153946, -63.46633148, -37.26117706, 0.81018269, -0.14619938, 0.56390047, 0.06516113, -0.00586784, -0.00123945, -0.00525811, 0.00000000, 0.00000000, 0.00000000, 0.00000000
1, 0.2575, 96, -0.88030469, -0.30940592, -0.31225911, -4.49003696, 1.42343938, -2.26639485, -27.27272606, 23.41420555, -71.76264191, 44.00352478, -63.45982742, -37.26476669, 0.81021130, -0.14614992, 0.56386173, 0.06525189, -0.01431644, -0.00100479, -0.00914118, 0.00000000, 0.00000000, 0.00000000, 0.00000000
1, 0.2600, 97, -0.88067484, -0.30707926, -0.31173396, -5.06099033, 0.99605113, -1.85068369, -27.27272606, 23.41420555, -71.76264191, 43.99406433, -63.45482254, -37.26833725, 0.81023711, -0.14608465, 0.56383103, 0.06534368, -0.01390726, -0.00333271, -0.00977385, 0.00000000, 0.00000000, 0.00000000, 0.00000000
1, 0.2625, 98, -0.88067484, -0.30707926, -0.31173396, -5.06099033, 0.99605113, -1.85068369, -27.27272606, 23.41420555, -71.76264191, 43.98461151, -63.44982910, -37.27191162, 0.81026280, -0.14601935, 0.56380028, 0.06543546, -0.01386827, -0.00333390, -0.00988123, 0.00000000, 0.00000000, 0.00000000, 0.00000000
1, 0.2650, 99, -0.88858140, -0.30421782, -0.31668404, -7.06045580, -0.55146843, -1.51543224, -27.27272606, 23.41420555, -71.76264191, 43.97433853, -63.44819641, -37.28016281, 0.81027633, -0.14591239, 0.56379515, 0.06555085, -0.00594902, -0.00615540, -0.00500521, 0.00000000, 0.00000000, 0.00000000, 0.00000000
1, 0.2675, 100, -0.88858140, -0.30421782, -0.31668404, -7.06045580, -0.55146843, -1.51543224, -27.27272606, 23.41420555, -71.76264191, 43.96406174, -63.44655228, -37.28840637, 0.81028986, -0.14580543, 0.56379002, 0.06566624, -0.00593615, -0.00611541, -0.00507924, 0.00000000, 0.00000000, 0.00000000, 0.00000000
1, 0.2700, 101, -0.89773709, -0.29781979, -0.32866490, -8.06233597, -1.04992592, -1.23915637, -26.36655998, 23.58959389, -71.58725739, 43.95201492, -63.44628525, -37.29746628, 0.81030077, -0.14567664, 0.56379306, 0.06579065, 0.00322163, -0.01244858, 0.00683350, 0.00000000, 0.00000000, 0.00000000, 0.00000000
1, 0.2725, 102, -0.90078503, -0.29752037, -0.33341980, -8.20599174, -1.05236733, -1.16877961, -26.36655998, 23.58959389, -71.58725739, 43.91965485, -63.44783401, -37.29446030, 0.81033874, -0.14545669, 0.56377983, 0.06592244, 0.00625747, -0.01254949, 0.01143050, 0.00000000, 0.00000000, 0.00000000, 0.00000000
1, 0.2750, 103, -0.90153551, -0.29597586, -0.33852687, -8.20573521, -1.11830914, -1.37949502, -26.36655998, 23.58959389, -71.58725739, 43.90798950, -63.44746017, -37.30435944, 0.81034905, -0.14532699, 0.56378341, 0.06605130, 0.00701088, -0.01403254, 0.01647019, 0.00000000, 0.00000000, 0.00000000, 0.00000000
1, 0.2775, 104, -0.90093756, -0.29545537, -0.34035310, -7.84685898, -1.10945928, -1.73024845, -26.36655998, 23.58959389, -71.58725739, 43.89845657, -63.44644928, -37.31563187, 0.81035775, -0.14520794, 0.56378621, 0.06618193, 0.00642079, -0.01451034, 0.01823360, 0.00000000, 0.00000000, 0.00000000, 0.00000000
1, 0.2800, 105, -0.90092546, -0.29841214, -0.33990961, -7.56322002, -0.68695408, -2.00520658, -26.36655998, 23.58959389, -71.58725739, 43.88916397, -63.44420242, -37.32637787, 0.81037045, -0.14509791, 0.56378114, 0.06631259, 0.00642609, -0.01152551, 0.01771465, 0.00000000, 0.00000000, 0.00000000, 0.00000000
1, 0.2825, 106, -0.89826214, -0.29790112, -0.34039602, -7.13671255, -0.19057284, -2.48945022, -27.09733963, 23.03420067, -71.47032928, 43.88095093, -63.44023895, -37.33714676, 0.81038702, -0.14500207, 0.56376624, 0.06644498, 0.00379384, -0.01203334, 0.01811191, 0.00000000, 0.00000000, 0.00000000, 0.00000000
1, 0.2850, 107, -0.89910251, -0.29842278, -0.33856931, -6.63706303, 0.16690624, -2.90587664, -27.09733963, 23.03420067, -71.47032928, 43.87426758, -63.43490601, -37.34821320, 0.81040591, -0.14492072, 0.56374454, 0.06657746, 0.00467581, -0.01153174, 0.01618907, 0.00000000, 0.00000000, 0.00000000, 0.00000000
1, 0.2875, 108, -0.90668237, -0.28329471, -0.34149933, -5.71048212, 1.01637244, -3.52684712, -27.09733963, 23.03420067, -71.47032928, 43.86916733, -63.42695999, -37.35847855, 0.81043136, -0.14486460, 0.56370711, 0.06670684, 0.01231766, -0.02671710, 0.01900214, 0.00000000, 0.00000000, 0.00000000, 0.00000000
1, 0.2900, 109, -0.89474654, -0.29570538, -0.33804786, -2.84016943, 1.47403550, -4.50918484, -27.09733963, 23.03420067, -71.47032928, 43.87321091, -63.41649628, -37.37093735, 0.81045181, -0.14487197, 0.56366265, 0.06681682, 0.00046361, -0.01444239, 0.01545474, 0.00000000, 0.00000000, 0.00000000, 0.00000000
1, 0.2925, 110, -0.88190365, -0.34664124, -0.32247946, -1.04302275, 1.48972332, -4.44490576, -27.09733963, 23.03420067, -71.47032928, 43.88144684, -63.40610123, -37.38306808, 0.81046689, -0.14491035, 0.56362069, 0.06690353, -0.01229811, 0.03633475, -0.00018591, 0.00000000, 0.00000000, 0.00000000, 0.00000000
1, 0.2950, 111, -0.87878400, -0.32372093, -0.30796009, -3.33907199, 1.10886681, -3.60328412, -26.86348915, 22.80035019, -72.37649536, 43.88222885, -63.39788055, -37.39327621, 0.81048584, -0.14489724, 0.56358480, 0.06700479, -0.01535350, 0.01332080, -0.01479384, 0.00000000, 0.00000000, 0.00000000, 0.00000000
1, 0.2975, 112, -0.87327039, -0.31411278, -0.31613371, -6.14533806, 1.42886782, -3.58977246, -26.86348915, 22.80035019, -72.37649536, 43.87483215, -63.38907623, -37.40219116, 0.81051761, -0.14483480, 0.56353921, 0.06713931, -0.02079827, 0.00365919, -0.00675923, 0.00000000, 0.00000000, 0.00000000, 0.00000000
1, 0.3000, 113, -0.87083185, -0.32542616, -0.32376593, -7.15430641, 1.69971299, -3.79262233, -26.86348915, 22.80035019, -72.37649536, 43.86470413, -63.37942886, -37.41086960, 0.81055558, -0.14475740, 0.56348670, 0.06728896, -0.02316142, 0.01492548, 0.00070974, 0.00000000, 0.00000000, 0.00000000, 0.00000000
1, 0.3025, 114, -0.87419665, -0.33016467, -0.32016566, -7.08184814, 1.63114715, -3.79378891, -26.86348915, 22.80035019, -72.37649536, 43.85501480, -63.36993027, -37.41983032, 0.81059241, -0.14468122, 0.56343549, 0.06743796, -0.01972229, 0.01961583, -0.00305006, 0.00000000, 0.00000000, 0.00000000, 0.00000000
1, 0.3050, 115, -0.87673444, -0.33081368, -0.31858182, -6.87165070, 2.32224154, -3.57528424, -26.86348915, 22.80035019, -72.37649536, 43.84266281, -63.35954666, -37.42523193, 0.81063741, -0.14460705, 0.56337303, 0.06757832, -0.01710338, 0.02022234, -0.00481755, 0.00000000, 0.00000000, 0.00000000, 0.00000000
1, 0.3075, 116, -0.87587595, -0.33363664, -0.31862682, -6.58794785, 2.80739307, -3.42975307, -26.89272118, 22.80035019, -71.32417297, 43.82883453, -63.34854507, -37.42818451, 0.81068754, -0.14453682, 0.56330276, 0.06771109, -0.01787561, 0.02300456, -0.00497136, 0.00000000, 0.00000000, 0.00000000, 0.00000000
1, 0.3100, 117, -0.87392360, -0.33549732, -0.31682634, -6.30492783, 3.36288095, -3.35320544, -26.89272118, 22.80035019, -71.32417297, 43.81351852, -63.33668137, -37.42869186, 0.81074381, -0.14447148, 0.56322342, 0.06783727, -0.01973510, 0.02482355, -0.00698847, 0.00000000, 0.00000000, 0.00000000, 0.00000000
1, 0.3125, 118, -0.87197661, -0.33927417, -0.31859893, -6.09227324, 3.71218133, -3.41910410, -26.89272118, 22.80035019, -71.32417297, 43.79778671, -63.32405853, -37.42812729, 0.81080353, -0.14441122, 0.56313801, 0.06796090, -0.02158320, 0.02855323, -0.00544310, 0.00000000, 0.00000000, 0.00000000, 0.00000000
1, 0.3150, 119, -0.86954522, -0.34474346, -0.32223135, -5.73711491, 4.20239973, -3.55349755, -26.89272118, 22.80035019, -71.32417297, 43.78173447, -63.31032181, -37.42622375, 0.81086797, -0.14435963, 0.56304395, 0.06808101, -0.02390695, 0.03396508, -0.00205237, 0.00000000, 0.00000000, 0.00000000, 0.00000000
1, 0.3175, 120, -0.86724919, -0.34724781, -0.32691789, -5.23451996, 4.27633762, -3.55413771, -26.89272118, 22.80035019, -71.32417297, 43.76671219, -63.29646301, -37.42404556, 0.81093168, -0.14431705, 0.56294936, 0.06819471, -0.02609432, 0.03640497, 0.00239661, 0.00000000, 0.00000000, 0.00000000, 0.00000000
1, 0.3200, 121, -0.86469108, -0.35067919, -0.32685348, -5.01855612, 4.27505589, -3.34504104, -27.21426392, 23.70651817, -71.79187012, 43.75148010, -63.28297424, -37.42103577, 0.81099504, -0.14427571, 0.56285572, 0.06830207, -0.02854658, 0.03977705, 0.00209746, 0.00000000, 0.00000000, 0.00000000, 0.00000000
1, 0.3225, 122, -0.86310500, -0.35204643, -0.32528907, -4.80479193, 4.54962635, -3.06225634, -27.21426392, 23.70651817, -71.79187012, 43.76380920, -63.25224686, -37.43047333, 0.81107014, -0.14443423, 0.56269115, 0.06843071, -0.02989144, 0.04074318, 0.00025415, 0.00000000, 0.00000000, 0.00000000, 0.00000000
1, 0.3250, 123, -0.86223847, -0.35356951, -0.32164824, -4.80630875, 4.75514221, -2.91958404, -27.21426392, 23.70651817, -71.79187012, 43.74594879, -63.23861313, -37.42392731, 0.81113929, -0.14439212, 0.56259066, 0.06852639, -0.03065085, 0.04222068, -0.00363716, 0.00000000, 0.00000000, 0.00000000, 0.00000000
1, 0.3275, 124, -0.86125702, -0.35627770, -0.32108071, -4.73594332, 4.96132946, -2.77713799, -27.21426392, 23.70651817, -71.79187012, 43.72705460, -63.22484207, -37.41602325, 0.81121093, -0.14434981, 0.56248701, 0.06861804, -0.03152407, 0.04488794, -0.00446236, 0.00000000, 0.00000000, 0.00000000, 0.00000000
1, 0.3300, 125, -0.86039817, -0.35801187, -0.31988707, -4.95299864, 5.16373158, -2.56386375, -27.21426392, 23.70651817, -71.79187012, 43.70616913, -63.21110153, -37.40650177, 0.81128597, -0.14430133, 0.56238008, 0.06870792, -0.03227478, 0.04659262, -0.00592446, 0.00000000, 0.00000000, 0.00000000, 0.00000000
1, 0.3325, 126, -0.86016124, -0.35847285, -0.32197195, -5.31349707, 5.36149597, -2.14036298, -27.09733963, 22.82958221, -71.70417786, 43.68220901, -63.19769287, -37.39454269, 0.81136531, -0.14424157, 0.56227046, 0.06879412, -0.03240627, 0.04704583, -0.00412062, 0.00000000, 0.00000000, 0.00000000, 0.00000000
1, 0.3350, 127, -0.86246777, -0.35943907, -0.32393718, -5.67237282, 5.35264635, -1.78960979, -27.09733963, 22.82958221, -71.70417786, 43.65614700, -63.18493271, -37.38122559, 0.81144613, -0.14417115, 0.56216156, 0.06887853, -0.02999932, 0.04802310, -0.00244096, 0.00000000, 0.00000000, 0.00000000, 0.00000000
1, 0.3375, 128, -0.86320662, -0.35818383, -0.32599381, -6.10234022, 5.27168989, -1.29972160, -27.09733963, 22.82958221, -71.70417786, 43.62755585, -63.17314529, -37.36627960, 0.81152803, -0.14408699, 0.56205499, 0.06895980, -0.02916760, 0.04680420, -0.00067249, 0.00000000, 0.00000000, 0.00000000, 0.00000000
1, 0.3400, 129, -0.86526781, -0.35722232, -0.32511947, -6.38346052, 4.57003832, -0.88867658, -27.09733963, 22.82958221, -71.70417786, 43.59919739, -63.16333771, -37.35238266, 0.81160283, -0.14399172, 0.56196171, 0.06903944, -0.02702916, 0.04589916, -0.00181144, 0.00000000, 0.00000000, 0.00000000, 0.00000000
1, 0.3425, 130, -0.86526668, -0.35431933, -0.32177570, -6.73761606, 4.00618935, -0.47552422, -27.09733963, 22.82958221, -71.70417786, 43.57041168, -63.15527725, -37.33900070, 0.81167239, -0.14388429, 0.56187916, 0.06911788, -0.02696676, 0.04307381, -0.00540263, 0.00000000, 0.00000000, 0.00000000, 0.00000000
1, 0.3450, 131, -0.86733007, -0.35056216, -0.31865901, -7.16444302, 3.51310277, -0.20105503, -27.27272606, 22.59573174, -72.17187500, 43.54126358, -63.14857483, -37.32641220, 0.81173754, -0.14376517, 0.56180549, 0.06919823, -0.02485055, 0.03941111, -0.00875342, 0.00000000, 0.00000000, 0.00000000, 0.00000000
1, 0.3475, 132, -0.86818188, -0.34510118, -0.31393018, -7.66535139, 3.29519749, 0.14732789, -27.27272606, 22.59573174, -72.17187500, 43.51037216, -63.14285278, -37.31326294, 0.81180221, -0.14363259, 0.56173605, 0.06927924, -0.02395362, 0.03406540, -0.01371450, 0.00000000, 0.00000000, 0.00000000, 0.00000000
1, 0.3500, 133, -0.87121546, -0.34122559, -0.31080970, -8.30897713, 2.93857217, 0.42435613, -27.27272606, 22.59573174, -72.17187500, 43.47808838, -63.13824844, -37.30036163, 0.81186491, -0.14348467, 0.56167275, 0.06936434, -0.02088374, 0.03032518, -0.01706216, 0.00000000, 0.00000000, 0.00000000, 0.00000000
1, 0.3525, 134, -0.87716347, -0.33782744, -0.30964574, -9.16961193, 2.72060513, 0.56409377, -27.27272606, 22.59573174, -72.17187500, 43.44391251, -63.13428116, -37.28774261, 0.81192780, -0.14331946, 0.56161243, 0.06945819, -0.01490444, 0.02708022, -0.01845637, 0.00000000, 0.00000000, 0.00000000, 0.00000000
1, 0.3550, 135, -0.88978338, -0.33613592, -0.31167135, -10.24867058, 2.84571266, 0.77913755, -27.27272606, 22.59573174, -72.17187500, 43.40583038, -63.13045120, -37.27378082, 0.81199592, -0.14313267, 0.56154889, 0.06956106, -0.00225443, 0.02556581, -0.01668054, 0.00000000, 0.00000000, 0.00000000, 0.00000000
1, 0.3575, 136, -0.89368689, -0.33108687, -0.31354120, -11.11009693, 2.69918036, 0.77996618, -26.95118332, 22.59573174, -72.08418274, 43.36611938, -63.12689590, -37.26039886, 0.81206477, -0.14293039, 0.56148660, 0.06967492, 0.00167721, 0.02070633, -0.01506624, 0.00000000, 0.00000000, 0.00000000, 0.00000000
1, 0.3600, 137, -0.89368689, -0.33108687, -0.31354120, -11.11009693, 2.69918036, 0.77996618, -26.95118332, 23.03420067, -72.08418274, 43.32640839, -63.12331009, -37.24701691, 0.81213367, -0.14272811, 0.56142437, 0.06978878, 0.00170553, 0.02089611, -0.01532161, 0.00000000, 0.00000000, 0.00000000, 0.00000000
1, 0.3625, 138, -0.89682651, -0.33175609, -0.31073448, -13.04545212, 1.99197102, 0.56688201, -26.95118332, 23.03420067, -72.08418274, 43.28501892, -63.12067413, -37.23718262, 0.81219941, -0.14249304, 0.56137091, 0.06993231, 0.00486600, 0.02177462, -0.01838243, 0.00000000, 0.00000000, 0.00000000, 0.00000000
1, 0.3650, 139, -0.89682651, -0.33175609, -0.31073448, -13.04545212, 1.99197102, 0.56688201, -26.95118332, 23.03420067, -72.08418274, 43.24363708, -63.11801910, -37.22735214, 0.81226522, -0.14225797, 0.56131744, 0.07007585, 0.00488693, 0.02198407, -0.01863632, 0.00000000, 0.00000000, 0.00000000, 0.00000000
1, 0.3675, 140, -0.90552795, -0.33408380, -0.30549780, -14.18355370, 0.52833748, 0.48081493, -26.95118332, 23.03420067, -72.08418274, 43.20465851, -63.11788177, -37.22341156, 0.81231648, -0.14200155, 0.56128788, 0.07023938, 0.01358945, 0.02453441, -0.02408529, 0.00000000, 0.00000000, 0.00000000, 0.00000000
1, 0.3700, 141, -0.91096973, -0.33779654, -0.30554348, -14.89739227, -0.09931806, 0.33475697, -26.95118332, 23.03420067, -72.08418274, 43.16654587, -63.11861420, -37.22243500, 0.81236184, -0.14173327, 0.56126779, 0.07041617, 0.01902544, 0.02847451, -0.02423686, 0.00000000, 0.00000000, 0.00000000, 0.00000000
1, 0.3725, 142, -0.91558063, -0.33816242, -0.30725041, -15.68080807, -1.00459540, 0.18516189, -26.74656487, 23.56036186, -72.20111084, 43.15553284, -63.12317657, -37.24134445, 0.81234950, -0.14154527, 0.56131178, 0.07058622, 0.02360035, 0.02895225, -0.02253768, 0.00000000, 0.00000000, 0.00000000, 0.00000000
1, 0.3750, 143, -0.91885000, -0.34073621, -0.30887172, -16.17983627, -1.49505699, 0.25008240, -26.74656487, 23.56036186, -72.20111084, 43.11922073, -63.12633133, -37.24598312, 0.81238151, -0.14125313, 0.56131411, 0.07078454, 0.02684481, 0.03176866, -0.02107647, 0.00000000, 0.00000000, 0.00000000, 0.00000000
1, 0.3775, 144, -0.92164773, -0.34107280, -0.31204826, -16.68343353, -1.49536312, -0.02803604, -26.74656487, 23.56036186, -72.20111084, 43.08266068, -63.12901688, -37.25175476, 0.81241447, -0.14095546, 0.56131470, 0.07099394, 0.02962136, 0.03234440, -0.01806650, 0.00000000, 0.00000000, 0.00000000, 0.00000000
1, 0.3800, 145, -0.92468834, -0.34189343, -0.31584269, -17.11781883, -1.15100706, -0.16182695, -26.74656487, 23.56036186, -72.20111084, 43.04431915, -63.13084030, -37.25675201, 0.81245267, -0.14065224, 0.56130803, 0.07120996, 0.03264761, 0.03340542, -0.01445779, 0.00000000, 0.00000000, 0.00000000, 0.00000000
1, 0.3825, 146, -0.92857826, -0.34513801, -0.32236087, -17.33839417, -0.59582525, -0.36339796, -26.74656487, 23.56036186, -72.20111084, 43.00428391, -63.13129807, -37.26045609, 0.81249809, -0.14034845, 0.56129050, 0.07143055, 0.03653390, 0.03688581, -0.00814980, 0.00000000, 0.00000000, 0.00000000, 0.00000000
1, 0.3850, 147, -0.93355727, -0.35033339, -0.33037305, -17.34595299, 0.24161662, -0.77165800, -26.89272118, 23.50189972, -71.41186523, 42.96289062, -63.12956238, -37.26267242, 0.81255287, -0.14005078, 0.56125677, 0.07165589, 0.04152662, 0.04230136, -0.00038028, 0.00000000, 0.00000000, 0.00000000, 0.00000000
1, 0.3875, 148, -0.93843275, -0.35218537, -0.34004501, -17.28336143, 1.28744268, -1.17732191, -26.89272118, 23.50189972, -71.41186523, 42.91961670, -63.12518311, -37.26259613, 0.81261945, -0.13976081, 0.56120330, 0.07188445, 0.04643661, 0.04435709, 0.00900951, 0.00000000, 0.00000000, 0.00000000, 0.00000000
1, 0.3900, 149, -0.94221854, -0.35596576, -0.35207048, -17.00617409, 2.47265935, -1.51185668, -26.89272118, 23.50189972, -71.41186523, 42.87426376, -63.11810684, -37.25941849, 0.81269920, -0.13948169, 0.56112820, 0.07211193, 0.05027826, 0.04832439, 0.02071038, 0.00000000, 0.00000000, 0.00000000, 0.00000000
1, 0.3925, 150, -0.94589120, -0.35801619, -0.36468068, -16.65349007, 3.17827916, -2.13290191, -26.89272118, 23.50189972, -71.41186523, 42.82968521, -63.10864639, -37.25611115, 0.81278533, -0.13921753, 0.56103909, 0.07234395, 0.05402559, 0.05053270, 0.03297344, 0.00000000, 0.00000000, 0.00000000, 0.00000000
1, 0.3950, 151, -0.95174682, -0.35813457, -0.37554610, -16.30106544, 3.94984102, -2.54323196, -26.89272118, 23.50189972, -71.41186523, 42.78488159, -63.09706879, -37.25157928, 0.81287920, -0.13896583, 0.56093556, 0.07257657, 0.05997260, 0.05078821, 0.04346634, 0.00000000, 0.00000000, 0.00000000, 0.00000000
1, 0.3975, 152, -0.95784009, -0.35924253, -0.38605955, -16.01968575, 4.58555174, -3.16499233, -27.76965714, 23.94036865, -72.23033905, 42.74095154, -63.08328629, -37.24722290, 0.81297874, -0.13872771, 0.56081921, 0.07281483, 0.06617475, 0.05200526, 0.05358666, 0.00000000, 0.00000000, 0.00000000, 0.00000000
1, 0.4000, 153, -0.96029723, -0.36033180, -0.39670235, -15.88175297, 5.21662331, -3.57652640, -27.76965714, 23.94036865, -72.23033905, 42.69676590, -63.06764603, -37.24219131, 0.81308496, -0.13849807, 0.56069064, 0.07305679, 0.06875552, 0.05318592, 0.06381370, 0.00000000, 0.00000000, 0.00000000, 0.00000000
1, 0.4025, 154, -0.96334386, -0.36076462, -0.40183505, -15.31043720, 5.57697153, -4.13302803, -27.76965714, 23.94036865, -72.23033905, 42.65484619, -63.05039978, -37.23811340, 0.81319273, -0.13828592, 0.56055480, 0.07330053, 0.07193853, 0.05368049, 0.06852435, 0.00000000, 0.00000000, 0.00000000, 0.00000000
1, 0.4050, 155, -0.96773034, -0.35972351, -0.40730900, -14.66734505, 5.93908882, -4.75968075, -27.76965714, 23.94036865, -72.23033905, 42.61561584, -63.03139877, -37.23522949, 0.81330198, -0.13809340, 0.56041157, 0.07354643, 0.07647534, 0.05266775, 0.07357077, 0.00000000, 0.00000000, 0.00000000, 0.00000000
1, 0.4075, 156, -0.96431386, -0.36331204, -0.40456039, -13.73683262, 6.30499077, -5.45716143, -27.76965714, 23.94036865, -72.23033905, 42.58004761, -63.01056671, -37.23385620, 0.81341165, -0.13792650, 0.56026119, 0.07379222, 0.07322384, 0.05624418, 0.07039295, 0.00000000, 0.00000000, 0.00000000, 0.00000000
1, 0.4100, 157, -0.96076697, -0.36378771, -0.39589894, -12.94803429, 6.45854044, -5.94723797, -27.15580177, 24.17421722, -71.58725739, 42.54774094, -62.98860550, -37.23392868, 0.81351995, -0.13777982, 0.56010783, 0.07403659, 0.06985094, 0.05667756, 0.06130700, 0.00000000, 0.00000000, 0.00000000, 0.00000000
1, 0.4125, 158, -0.96075112, -0.36445782, -0.39199892, -12.73407459, 6.60452366, -6.29565811, -27.15580177, 24.17421722, -71.58725739, 42.51676559, -62.96581268, -37.23488998, 0.81362861, -0.13764140, 0.55995107, 0.07428408, 0.07001579, 0.05728894, 0.05697960, 0.00000000, 0.00000000, 0.00000000, 0.00000000
1, 0.4150, 159, -0.96156996, -0.36930740, -0.38840556, -12.94909954, 6.46952581, -6.64648628, -27.15580177, 24.17421722, -71.58725739, 42.48698425, -62.94266129, -37.23780823, 0.81373572, -0.13750324, 0.55979526, 0.07454082, 0.07101840, 0.06206962, 0.05296126, 0.00000000, 0.00000000, 0.00000000, 0.00000000
1, 0.4175, 160, -0.96131361, -0.37384525, -0.38908651, -13.37378883, 5.63794279, -6.86619473, -27.15580177, 24.17421722, -71.58725739, 42.45970154, -62.92067337, -37.24470901, 0.81383353, -0.13735883, 0.55965281, 0.07480913, 0.07093669, 0.06653656, 0.05324383, 0.00000000, 0.00000000, 0.00000000, 0.00000000
1, 0.4200, 161, -0.95523638, -0.37727585, -0.38792953, -13.86700535, 4.39136076, -7.16124725, -27.15580177, 24.17421722, -71.58725739, 42.43637848, -62.90048981, -37.25745010, 0.81391692, -0.13720721, 0.55953068, 0.07509242, 0.06501985, 0.06989229, 0.05173033, 0.00000000, 0.00000000, 0.00000000, 0.00000000
1, 0.4225, 162, -0.95098042, -0.37864286, -0.38551521, -14.50424385, 3.20937705, -7.24513197, -27.09733963, 23.94036865, -72.37649536, 42.42295074, -62.87435150, -37.27812576, 0.81400204, -0.13710965, 0.55938852, 0.07540701, 0.06097181, 0.07106419, 0.04894428, 0.00000000, 0.00000000, 0.00000000, 0.00000000
1, 0.4250, 163, -0.95325607, -0.38143057, -0.38042095, -15.21278477, 1.95748484, -7.32973242, -27.09733963, 23.94036865, -72.37649536, 42.40488052, -62.85838318, -37.30055618, 0.81405926, -0.13693215, 0.55930674, 0.07571697, 0.06337458, 0.07379076, 0.04356983, 0.00000000, 0.00000000, 0.00000000, 0.00000000
1, 0.4550, 164, -0.95228213, -0.42749709, -0.35668868, -23.57279396, -4.71405363, -10.81993771, -27.62350082, 23.73575020, -72.28880310, 42.28158951, -62.73709106, -37.83158493, 0.81422466, -0.13392459, 0.55911678, 0.08056593, 0.06336832, 0.11931616, 0.01778340, 0.00000000, 0.00000000, 0.00000000, 0.00000000
1, 0.4575, 165, -0.95228213, -0.42749709, -0.35668868, -23.57279396, -4.71405363, -10.81993771, -27.62350082, 23.73575020, -72.28880310, 42.27687454, -62.72761154, -37.89257812, 0.81421691, -0.13362953, 0.55912745, 0.08105944, 0.06344415, 0.11924520, 0.01764927, 0.00000000, 0.00000000, 0.00000000, 0.00000000
1, 0.4600, 166, -0.96751314, -0.44336811, -0.36081079, -24.44899368, -3.37913489, -12.54747391, -28.00350761, 22.91727448, -72.28880310, 42.27177429, -62.71276093, -37.95561600, 0.81422460, -0.13334228, 0.55910754, 0.08159039, 0.07879396, 0.13499144, 0.02157349, 0.00000000, 0.00000000, 0.00000000, 0.00000000
1, 0.4625, 167, -0.96751314, -0.44336811, -0.36081079, -24.44899368, -3.37913489, -12.54747391, -28.00350761, 22.91727448, -72.28880310, 42.26665878, -62.69792938, -38.01863861, 0.81423193, -0.13305497, 0.55908746, 0.08212131, 0.07891268, 0.13486692, 0.02137565, 0.00000000, 0.00000000, 0.00000000, 0.00000000
1, 0.4650, 168, -0.96692091, -0.45530236, -0.37724698, -24.59138489, -3.83767724, -14.30172920, -28.00350761, 22.91727448, -72.28880310, 42.26891708, -62.68098068, -38.09036255, 0.81423080, -0.13278569, 0.55906999, 0.08268645, 0.07845618, 0.14661101, 0.03762946, 0.00000000, 0.00000000, 0.00000000, 0.00000000
1, 0.4675, 169, -0.96520805, -0.46626258, -0.38401690, -23.51029205, -4.30018425, -15.08087540, -28.00350761, 22.91727448, -72.28880310, 42.27811813, -62.66357803, -38.16688538, 0.81421900, -0.13254419, 0.55906010, 0.08325353, 0.07688284, 0.15733507, 0.04424920, 0.00000000, 0.00000000, 0.00000000, 0.00000000
1, 0.4700, 170, -0.96336144, -0.47642437, -0.38637581, -22.43004036, -4.62751245, -15.64836502, -28.00350761, 22.91727448, -72.28880310, 42.29305649, -62.64581299, -38.24683380, 0.81419891, -0.13232818, 0.55905622, 0.08381844, 0.07517856, 0.16722301, 0.04648501, 0.00000000, 0.00000000, 0.00000000, 0.00000000
1, 0.4725, 171, -0.95580733, -0.48950946, -0.38879117, -21.20879936, -4.60840797, -16.14167976, -27.91581345, 23.64805603, -71.82110596, 42.33282852, -62.61719513, -38.33924484, 0.81417429, -0.13226944, 0.55901951, 0.08439350, 0.06785405, 0.17977348, 0.04878718, 0.00000000, 0.00000000, 0.00000000, 0.00000000
1, 0.4750, 172, -0.94982469, -0.50286162, -0.39022979, -20.27508354, -4.59198952, -16.63409042, -27.91581345, 23.64805603, -71.82110596, 42.35637665, -62.59765244, -38.42286301, 0.81414610, -0.13210371, 0.55901569, 0.08494947, 0.06202830, 0.19278213, 0.05012955, 0.00000000, 0.00000000, 0.00000000, 0.00000000
1, 0.4775, 173, -0.94395804, -0.51914340, -0.39317942, -19.27063942, -4.43642378, -17.12484550, -27.91581345, 23.64805603, -71.82110596, 42.38360596, -62.57700729, -38.50780487, 0.81411558, -0.13196203, 0.55900931, 0.08550143, 0.05632758, 0.20868653, 0.05299014, 0.00000000, 0.00000000, 0.00000000, 0.00000000
1, 0.4800, 174, -0.93567300, -0.53490478, -0.39734802, -18.48288727, -4.14549685, -17.54311371, -27.91581345, 23.64805603, -71.82110596, 42.41325760, -62.55508804, -38.59326553, 0.81408536, -0.13183995, 0.55899787, 0.08605035, 0.04821880, 0.22404295, 0.05706878, 0.00000000, 0.00000000, 0.00000000, 0.00000000
1, 0.4825, 175, -0.93030196, -0.54957008, -0.40173820, -17.69549942, -3.78752947, -17.82059479, -27.91581345, 23.64805603, -71.82110596, 42.44460297, -62.53202057, -38.67844772, 0.81405652, -0.13173588, 0.55898064, 0.08659354, 0.04303337, 0.23828104, 0.06136547, 0.00000000, 0.00000000, 0.00000000, 0.00000000
1, 0.4850, 176, -0.92444265, -0.56497407, -0.40589634, -16.83522797, -3.50252175, -17.81954193, -27.97427559, 22.80035019, -72.52265167, 42.47706985, -62.50841522, -38.76248932, 0.81402838, -0.13164756, 0.55895972, 0.08712538, 0.03736419, 0.25324529, 0.06543039, 0.00000000, 0.00000000, 0.00000000, 0.00000000
1, 0.4875, 177, -0.91883355, -0.57816678, -0.41002011, -15.97416401, -3.28894830, -17.67957878, -27.97427559, 22.80035019, -72.52265167, 42.51040268, -62.48460770, -38.84508514, 0.81400043, -0.13157319, 0.55893695, 0.08764359, 0.03194696, 0.26599112, 0.06946407, 0.00000000, 0.00000000, 0.00000000, 0.00000000
1, 0.4900, 178, -0.91601467, -0.58857685, -0.41189602, -15.04500103, -2.65598321, -17.74397469, -27.97427559, 22.80035019, -72.52265167, 42.54411697, -62.45952606, -38.92552185, 0.81397718, -0.13151726, 0.55890429, 0.08814976, 0.02933043, 0.27593818, 0.07123756, 0.00000000, 0.00000000, 0.00000000, 0.00000000
1, 0.4925, 179, -0.91113639, -0.60018378, -0.41538304, -13.61371231, -1.88094044, -17.73814392, -27.97427559, 22.80035019, -72.52265167, 42.57878876, -62.43299866, -39.00301743, 0.81395906, -0.13148816, 0.55886060, 0.08863614, 0.02466631, 0.28706133, 0.07461163, 0.00000000, 0.00000000, 0.00000000, 0.00000000
1, 0.4950, 180, -0.90152627, -0.61202848, -0.41790581, -11.82841778, -0.47720608, -17.86482239, -27.97427559, 22.80035019, -72.52265167, 42.61370087, -62.40364075, -39.07576752, 0.81395257, -0.13149500, 0.55879492, 0.08909897, 0.01529342, 0.29839107, 0.07699113, 0.00000000, 0.00000000, 0.00000000, 0.00000000
1, 0.4975, 181, -0.89421076, -0.62403977, -0.41810468, -9.68346024, 0.86394382, -18.20334816, -27.88658333, 21.83572006, -72.28880310, 42.65070724, -62.37123108, -39.14485550, 0.81395549, -0.13154665, 0.55870849, 0.08953779, 0.00823998, 0.30984262, 0.07702394, 0.00000000, 0.00000000, 0.00000000, 0.00000000
1, 0.5000, 182, -0.88420343, -0.64122862, -0.41643313, -7.61410093, 2.68578959, -18.32528877, -27.88658333, 21.83572006, -72.28880310, 42.68728638, -62.33523941, -39.20763779, 0.81397414, -0.13164003, 0.55859321, 0.08994830, -0.00147575, 0.32643652, 0.07514404, 0.00000000, 0.00000000, 0.00000000, 0.00000000
1, 0.5025, 183, -0.87468249, -0.65599114, -0.41264614, -5.76442194, 4.99028444, -18.43996429, -27.88658333, 21.83572006, -72.28880310, 42.72131729, -62.29481125, -39.26234055, 0.81401521, -0.13177216, 0.55844027, 0.09033167, -0.01066887, 0.34057236, 0.07108498, 0.00000000, 0.00000000, 0.00000000, 0.00000000
1, 0.5050, 184, -0.86697185, -0.67285323, -0.40876535, -4.05562305, 6.94724798, -18.55889702, -27.88658333, 21.83572006, -72.28880310, 42.75358963, -62.25055695, -39.31025696, 0.81407493, -0.13193995, 0.55825555, 0.09069070, -0.01802016, 0.35677817, 0.06688006, 0.00000000, 0.00000000, 0.00000000, 0.00000000
1, 0.5075, 185, -0.86023796, -0.68896508, -0.40609306, -2.85025239, 8.96545219, -18.46552658, -27.88658333, 21.83572006, -72.28880310, 42.78191757, -62.20275116, -39.35032654, 0.81415570, -0.13213195, 0.55803746, 0.09102756, -0.02436525, 0.37221968, 0.06382231, 0.00000000, 0.00000000, 0.00000000, 0.00000000
1, 0.5100, 186, -0.85351592, -0.70502830, -0.40684155, -1.57242405, 10.91509247, -18.37332535, -27.88658333, 21.83572006, -72.28880310, 42.80672455, -62.15153885, -39.38282013, 0.81425655, -0.13234937, 0.55778748, 0.09134157, -0.03067023, 0.38759741, 0.06412788, 0.00000000, 0.00000000, 0.00000000, 0.00000000
1, 0.5125, 187, -0.85044467, -0.71814293, -0.40863717, -0.58190870, 12.85984993, -18.14037323, -27.50657654, 22.94650650, -72.02572632, 42.82686996, -62.09712982, -39.40724945, 0.81437832, -0.13258538, 0.55750543, 0.09163375, -0.03329736, 0.40002099, 0.06541952, 0.00000000, 0.00000000, 0.00000000, 0.00000000
1, 0.5150, 188, -0.84785855, -0.73356050, -0.41291100, 0.55456996, 14.53009701, -17.98155975, -27.50657654, 22.94650650, -72.02572632, 42.84385300, -62.03993988, -39.42491150, 0.81451738, -0.13284296, 0.55719632, 0.09190445, -0.03541595, 0.41473708, 0.06914100, 0.00000000, 0.00000000, 0.00000000, 0.00000000
1, 0.5175, 189, -0.84708619, -0.74718797, -0.41397661, 1.76041067, 16.48016357, -17.95905685, -27.50657654, 22.94650650, -72.02572632, 42.85746765, -61.97919846, -39.43534088, 0.81467658, -0.13312560, 0.55685496, 0.09215441, -0.03569078, 0.42764625, 0.06959628, 0.00000000, 0.00000000, 0.00000000, 0.00000000
1, 0.5200, 190, -0.84873122, -0.76012748, -0.41233838, 2.96294165, 18.78081131, -18.21155167, -27.50657654, 22.94650650, -72.02572632, 42.86756897, -61.91381454, -39.43838882, 0.81485933, -0.13343725, 0.55647409, 0.09238754, -0.03350902, 0.43983990, 0.06727614, 0.00000000, 0.00000000, 0.00000000, 0.00000000
1, 0.5225, 191, -0.84820026, -0.77618301, -0.41564018, 4.30487919, 21.57075882, -18.66768646, -27.50657654, 22.94650650, -72.02572632, 42.91248322, -61.82123184, -39.45289612, 0.81507355, -0.13404688, 0.55597126, 0.09264170, -0.03327805, 0.45465463, 0.06978542, 0.00000000, 0.00000000, 0.00000000, 0.00000000
1, 0.5250, 192, -0.84099889, -0.79319078, -0.41897023, 6.08240032, 23.81413269, -19.34247780, -27.12657166, 22.01110840, -72.08418274, 42.91814041, -61.74469376, -39.44206238, 0.81530535, -0.13443775, 0.55550337, 0.09284221, -0.03984785, 0.47082680, 0.07228526, 0.00000000, 0.00000000, 0.00000000, 0.00000000
1, 0.5275, 193, -0.83186966, -0.80917323, -0.42461029, 7.57254553, 25.98997688, -20.29700470, -27.12657166, 22.01110840, -72.08418274, 42.92390823, -61.66256714, -39.42710876, 0.81555676, -0.13487105, 0.55499673, 0.09303521, -0.04829747, 0.48591489, 0.07703342, 0.00000000, 0.00000000, 0.00000000, 0.00000000
1, 0.5300, 194, -0.81534123, -0.82877547, -0.43264267, 8.63659191, 27.53865623, -21.25864410, -27.12657166, 22.01110840, -72.08418274, 42.93073273, -61.57595062, -39.41033173, 0.81582147, -0.13533798, 0.55446160, 0.09322783, -0.06410749, 0.50456989, 0.08413066, 0.00000000, 0.00000000, 0.00000000, 0.00000000
1, 0.5325, 195, -0.79662693, -0.85250306, -0.44379762, 9.06042957, 28.37902832, -21.59833527, -27.12657166, 22.01110840, -72.08418274, 42.93717194, -61.48722839, -39.39188766, 0.81609374, -0.13581818, 0.55391097, 0.09341883, -0.08208364, 0.52733088, 0.09432545, 0.00000000, 0.00000000, 0.00000000, 0.00000000
1, 0.5350, 196, -0.78129327, -0.87896615, -0.45388773, 8.69993019, 28.57679176, -21.17483330, -27.12657166, 22.01110840, -72.08418274, 42.94070053, -61.39886093, -39.37114334, 0.81637001, -0.13628718, 0.55335701, 0.09360600, -0.09668007, 0.55284977, 0.10344396, 0.00000000, 0.00000000, 0.00000000, 0.00000000
1, 0.5375, 197, -0.76705706, -0.90468127, -0.46506393, 7.40712738, 28.55372047, -20.47151947, -27.62350082, 21.33878899, -71.87957001, 42.93878937, -61.31174850, -39.34785843, 0.81665051, -0.13672449, 0.55280250, 0.09379625, -0.11018735, 0.57766742, 0.11363235, 0.00000000, 0.00000000, 0.00000000, 0.00000000
1, 0.5400, 198, -0.74910504, -0.92948157, -0.48747590, 5.39713097, 28.31732178, -19.83869743, -27.62350082, 21.33878899, -71.87957001, 42.93054962, -61.22612381, -39.32308197, 0.81693518, -0.13711782, 0.55224973, 0.09400012, -0.12742105, 0.60162592, 0.13503799, 0.00000000, 0.00000000, 0.00000000, 0.00000000
1, 0.5425, 199, -0.72789067, -0.95591968, -0.51468539, 3.31833053, 27.60547447, -19.84155464, -27.62350082, 21.33878899, -71.87957001, 42.91943741, -61.14180374, -39.30093002, 0.81721693, -0.13747260, 0.55170506, 0.09423117, -0.14792618, 0.62725437, 0.16123971, 0.00000000, 0.00000000, 0.00000000, 0.00000000
1, 0.5450, 200, -0.70475298, -0.98434258, -0.54865003, 1.89312851, 26.13476181, -19.64701843, -27.62350082, 21.33878899, -71.87957001, 42.90874863, -61.06052399, -39.28330612, 0.81748515, -0.13779652, 0.55118388, 0.09448025, -0.17037824, 0.65489745, 0.19423318, 0.00000000, 0.00000000, 0.00000000, 0.00000000
1, 0.5475, 201, -0.68100852, -1.01155448, -0.58113098, 1.19329870, 23.90695190, -19.32523918, -27.62350082, 21.33878899, -71.87957001, 42.90215302, -60.98385620, -39.27236557, 0.81772906, -0.13809943, 0.55070174, 0.09473867, -0.19347435, 0.68135315, 0.22581863, 0.00000000, 0.00000000, 0.00000000, 0.00000000
1, 0.5500, 202, -0.65105700, -1.04113138, -0.64408797, 1.28185964, 21.96348000, -19.00218010, -26.95118332, 22.33265114, -72.40573120, 42.90071869, -60.91128540, -39.26705551, 0.81794959, -0.13839597, 0.55025518, 0.09499607, -0.22281080, 0.71018535, 0.28795642, 0.00000000, 0.00000000, 0.00000000, 0.00000000
1, 0.5525, 203, -0.57628703, -1.09171033, -0.66798848, 2.38133216, 19.53925133, -18.33924484, -26.95118332, 22.33265114, -72.40573120, 42.90727234, -60.84431076, -39.26773834, 0.81813878, -0.13869910, 0.54985601, 0.09523574, -0.29701191, 0.76002818, 0.31114665, 0.00000000, 0.00000000, 0.00000000, 0.00000000
1, 0.5550, 204, -0.53493500, -1.11484718, -0.68736804, 4.20143223, 17.10306168, -16.48984718, -26.95118332, 22.33265114, -72.40573120, 42.91970444, -60.78490829, -39.26994705, 0.81829697, -0.13900745, 0.54950953, 0.09542791, -0.33785844, 0.78247166, 0.32993558, 0.00000000, 0.00000000, 0.00000000, 0.00000000
1, 0.5575, 205, -0.53493500, -1.11484718, -0.68736804, 4.20143223, 17.10306168, -16.48984718, -26.95118332, 22.33265114, -72.40573120, 42.93210983, -60.72552490, -39.27212906, 0.81845474, -0.13931574, 0.54916281, 0.09562004, -0.33735204, 0.78177798, 0.32934532, 0.00000000, 0.00000000, 0.00000000, 0.00000000
1, 0.5600, 206, -0.43848839, -1.15845430, -0.71035087, 10.06610107, 12.48118305, -14.19372654, -26.95118332, 22.33265114, -72.40573120, 42.96566772, -60.67851257, -39.28175735, 0.81854409, -0.13969156, 0.54891777, 0.09571494, -0.43339726, 0.82468796, 0.35199973, 0.00000000, 0.00000000, 0.00000000, 0.00000000
1, 0.5625, 207, -0.43848839, -1.15845430, -0.71035087, 10.06610107, 12.48118305, -14.19372654, -27.12657166, 21.48494530, -72.40573120, 42.99916840, -60.63149261, -39.29131699, 0.81863314, -0.14006734, 0.54867262, 0.09580981, -0.43299517, 0.82399058, 0.35167184, 0.00000000, 0.00000000, 0.00000000, 0.00000000
1, 0.5650, 208, -0.31982934, -1.20753062, -0.73053020, 13.00896645, 13.50223732, -11.32195568, -27.12657166, 21.48494530, -72.40573120, 43.02756119, -60.58750153, -39.28657150, 0.81873113, -0.14046340, 0.54842395, 0.09581501, -0.55127716, 0.87243259, 0.37152779, 0.00000000, 0.00000000, 0.00000000, 0.00000000
1, 0.5675, 209, -0.26609108, -1.22997320, -0.74283695, 14.36129570, 15.48882866, -9.13129520, -27.12657166, 21.48494530, -72.40573120, 43.04620743, -60.54362488, -39.26675415, 0.81885326, -0.14086154, 0.54814929, 0.09575880, -0.60463905, 0.89430308, 0.38345614, 0.00000000, 0.00000000, 0.00000000, 0.00000000
1, 0.5700, 210, -0.21963730, -1.25349331, -0.75954443, 15.92433643, 18.03463364, -7.14355946, -27.12657166, 21.48494530, -72.40573120, 43.05465698, -60.49848175, -39.23073196, 0.81900495, -0.14126910, 0.54783833, 0.09564055, -0.65070522, 0.91730201, 0.39971203, 0.00000000, 0.00000000, 0.00000000, 0.00000000
1, 0.5725, 211, -0.17573856, -1.27516937, -0.77707386, 18.13660240, 20.18313980, -5.93267441, -27.12657166, 21.48494530, -72.40573120, 43.07481003, -60.42797470, -39.18984604, 0.81922024, -0.14188159, 0.54737699, 0.09553254, -0.69399744, 0.93812048, 0.41657776, 0.00000000, 0.00000000, 0.00000000, 0.00000000
1, 0.5750, 212, -0.12236540, -1.30233240, -0.79470664, 20.70616150, 22.48336029, -5.35036230, -27.85735130, 20.31569672, -72.55188751, 43.07619476, -60.37778473, -39.13190079, 0.81941324, -0.14236237, 0.54700154, 0.09531126, -0.74693775, 0.96475434, 0.43366212, 0.00000000, 0.00000000, 0.00000000, 0.00000000
1, 0.5775, 213, -0.06357423, -1.34386706, -0.80279469, 23.56890678, 24.09499550, -4.84828472, -27.85735130, 20.31569672, -72.55188751, 43.07839203, -60.32550049, -39.06663132, 0.81961733, -0.14289163, 0.54660463, 0.09504181, -0.80527776, 1.00573385, 0.44118401, 0.00000000, 0.00000000, 0.00000000, 0.00000000
1, 0.5800, 214, -0.01281640, -1.40783834, -0.84371436, 28.37508392, 25.44450951, -4.14629364, -27.85735130, 20.31569672, -72.55188751, 43.08641815, -60.27196503, -38.99422073, 0.81982344, -0.14350116, 0.54619539, 0.09469823, -0.85557270, 1.06909990, 0.48155829, 0.00000000, 0.00000000, 0.00000000, 0.00000000
1, 0.5825, 215, 0.05216871, -1.43109918, -0.82941771, 35.34468842, 26.04596329, -3.04187751, -27.85735130, 20.31569672, -72.55188751, 43.10667801, -60.21922302, -38.91576767, 0.82001638, -0.14422330, 0.54579276, 0.09424986, -0.92010069, 1.09168649, 0.46679789, 0.00000000, 0.00000000, 0.00000000, 0.00000000
1, 0.5850, 216, 0.11186144, -1.47393584, -0.82347488, 39.64835358, 27.51058197, -1.14770162, -27.85735130, 20.31569672, -72.55188751, 43.12740326, -60.16705322, -38.82542038, 0.82021642, -0.14500277, 0.54537827, 0.09371168, -0.97934103, 1.13385224, 0.46040148, 0.00000000, 0.00000000, 0.00000000, 0.00000000
1, 0.5875, 217, 0.15976626, -1.51755404, -0.82692909, 41.79538727, 29.21003342, 2.15550971, -27.47734642, 20.54954720, -72.69804382, 43.13806534, -60.11744690, -38.71723557, 0.82043570, -0.14578466, 0.54494750, 0.09308335, -1.02681482, 1.17688942, 0.46337101, 0.00000000, 0.00000000, 0.00000000, 0.00000000
1, 0.5900, 218, 0.19923912, -1.55184865, -0.84036565, 43.00091934, 31.92284393, 6.52464056, -27.47734642, 20.54954720, -72.69804382, 43.13001633, -60.07035828, -38.58392715, 0.82069105, -0.14654149, 0.54448384, 0.09235374, -1.06587791, 1.21074808, 0.47623986, 0.00000000, 0.00000000, 0.00000000, 0.00000000
1, 0.5925, 219, 0.23112482, -1.57849658, -0.86662257, 44.86026764, 34.00097656, 12.00206947, -27.47734642, 20.54954720, -72.69804382, 43.10330582, -60.02882385, -38.42367172, 0.82097507, -0.14727050, 0.54400331, 0.09149718, -1.09740150, 1.23713624, 0.50187898, 0.00000000, 0.00000000, 0.00000000, 0.00000000
1, 0.5950, 220, 0.25373432, -1.59535801, -0.90114230, 47.94908905, 35.38057709, 18.58504868, -27.47734642, 20.54954720, -72.69804382, 43.05968094, -59.99596024, -38.23490524, 0.82127732, -0.14797926, 0.54352456, 0.09048148, -1.11972451, 1.25393641, 0.53577590, 0.00000000, 0.00000000, 0.00000000, 0.00000000
1, 0.5975, 221, 0.28054929, -1.62804890, -0.92772567, 51.99053192, 34.80938339, 26.46732140, -27.47734642, 20.54954720, -72.69804382, 43.00312424, -59.97749710, -38.01947784, 0.82157356, -0.14866549, 0.54308832, 0.08927827, -1.14637804, 1.28679764, 0.56181836, 0.00000000, 0.00000000, 0.00000000, 0.00000000
1, 0.6000, 222, 0.29945189, -1.65276659, -0.95563722, 55.18423080, 32.81132889, 36.50116730, -27.21426392, 20.69570351, -73.16574097, 42.92877197, -59.97965622, -37.77427292, 0.82185334, -0.14928585, 0.54272532, 0.08786365, -1.16529953, 1.31201279, 0.58931130, 0.00000000, 0.00000000, 0.00000000, 0.00000000
1, 0.6025, 223, 0.30455786, -1.65291560, -0.98668814, 58.24264526, 30.02834702, 47.92360306, -27.21426392, 20.69570351, -73.16574097, 42.83390045, -60.00617599, -37.49657822, 0.82210982, -0.14982003, 0.54245383, 0.08621683, -1.17063713, 1.31304157, 0.62009251, 0.00000000, 0.00000000, 0.00000000, 0.00000000
1, 0.6050, 224, 0.30501026, -1.63835597, -1.01616013, 61.59274673, 26.88867950, 60.17953873, -27.21426392, 20.69570351, -73.16574097, 42.71719742, -60.05901337, -37.18410492, 0.82233822, -0.15026282, 0.54228306, 0.08432049, -1.17155027, 1.29977131, 0.64945996, 0.00000000, 0.00000000, 0.00000000, 0.00000000
1, 0.6075, 225, 0.29475707, -1.60600209, -1.03825033, 65.16250610, 23.45649719, 73.54982758, -27.21426392, 20.69570351, -73.16574097, 42.57580185, -60.14044952, -36.83309174, 0.82253557, -0.15060453, 0.54222196, 0.08215295, -1.16200554, 1.26915693, 0.67162311, 0.00000000, 0.00000000, 0.00000000, 0.00000000
1, 0.6100, 226, 0.27305761, -1.55337965, -1.05426359, 69.30178833, 20.84626198, 87.83862305, -27.21426392, 20.69570351, -73.16574097, 42.40491486, -60.25035477, -36.43648911, 0.82270932, -0.15084596, 0.54225904, 0.07968815, -1.14125955, 1.21875191, 0.68786228, 0.00000000, 0.00000000, 0.00000000, 0.00000000
1, 0.6125, 227, 0.24267557, -1.48134649, -1.07216132, 74.51425934, 18.93077850, 102.62290955, -27.59427071, 20.02338409, -72.93189240, 42.20238495, -60.38802338, -35.98896027, 0.82286328, -0.15100168, 0.54238439, 0.07690208, -1.11206734, 1.14941835, 0.70612597, 0.00000000, 0.00000000, 0.00000000, 0.00000000
1, 0.6150, 228, 0.20461255, -1.39475203, -1.08774316, 81.01641846, 17.57689095, 117.69036102, -27.59427071, 20.02338409, -72.93189240, 41.96745682, -60.55262756, -35.48617935, 0.82299769, -0.15109219, 0.54258978, 0.07377236, -1.07542014, 1.06599903, 0.72220826, 0.00000000, 0.00000000, 0.00000000, 0.00000000
1, 0.6175, 229, 0.16328007, -1.29946399, -1.09328723, 88.16062927, 16.72249985, 132.20295715, -27.59427071, 20.02338409, -72.93189240, 41.70040512, -60.74190903, -34.92693329, 0.82311279, -0.15113614, 0.54286397, 0.07029951, -1.03570712, 0.97433388, 0.72837412, 0.00000000, 0.00000000, 0.00000000, 0.00000000
1, 0.6200, 230, 0.12110032, -1.19497764, -1.08891296, 94.72461700, 16.29573822, 145.60421753, -27.59427071, 20.02338409, -72.93189240, 41.40039062, -60.95286179, -34.31224060, 0.82321084, -0.15113661, 0.54319274, 0.06650874, -0.99532092, 0.87388921, 0.72471428, 0.00000000, 0.00000000, 0.00000000, 0.00000000
1, 0.6225, 231, 0.07300095, -1.08914649, -1.07729626, 99.34877014, 15.52442837, 157.74821472, -27.59427071, 20.02338409, -72.93189240, 41.06799316, -61.17165375, -33.64738464, 0.82332438, -0.15112461, 0.54350114, 0.06248908, -0.94906926, 0.77237189, 0.71376061, 0.00000000, 0.00000000, 0.00000000, 0.00000000
1, 0.6250, 232, 0.01021319, -0.98790169, -1.07647312, 101.74303436, 14.68504047, 168.49978638, -27.59427071, 22.06957054, -72.75650024, 40.69684601, -61.41961670, -32.93423843, 0.82338512, -0.15097280, 0.54392654, 0.05820710, -0.88835984, 0.67596340, 0.71377087, 0.00000000, 0.00000000, 0.00000000, 0.00000000
1, 0.6275, 233, -0.07246778, -0.89577991, -1.08894610, 104.36448669, 12.14638519, 177.33917236, -27.59427071, 22.06957054, -72.75650024, 40.29908752, -61.68443680, -32.18511200, 0.82340246, -0.15075704, 0.54441953, 0.05374247, -0.80788082, 0.58899575, 0.72718674, 0.00000000, 0.00000000, 0.00000000, 0.00000000
1, 0.6300, 234, -0.15528776, -0.77281493, -1.07455206, 108.08309174, 7.01753330, 184.18153381, -27.59427071, 22.06957054, -72.75650024, 39.89055634, -61.96759033, -31.41515923, 0.82333732, -0.15051763, 0.54502004, 0.04912650, -0.72739410, 0.47141168, 0.71395683, 0.00000000, 0.00000000, 0.00000000, 0.00000000
1, 0.6325, 235, -0.22791733, -0.66001219, -1.06839955, 112.24651337, -0.08222308, 188.89753723, -27.59427071, 22.06957054, -72.75650024, 39.48451996, -62.26933289, -30.63833046, 0.82316071, -0.15028593, 0.54575580, 0.04439853, -0.65722722, 0.36413175, 0.70927006, 0.00000000, 0.00000000, 0.00000000, 0.00000000
1, 0.6350, 236, -0.30261543, -0.55191177, -1.06940210, 117.21338654, -8.95170021, 192.11816406, -27.59427071, 22.06957054, -72.75650024, 39.09273148, -62.59079742, -29.86578751, 0.82284600, -0.15009297, 0.54665345, 0.03958163, -0.58512580, 0.26163012, 0.71211779, 0.00000000, 0.00000000, 0.00000000, 0.00000000
1, 0.6375, 237, -0.36539268, -0.44768089, -1.06242335, 123.41175079, -18.98350525, 195.10914612, -28.23735809, 23.94036865, -73.04881287, 38.72178650, -62.93407440, -29.10158539, 0.82237351, -0.14996321, 0.54773271, 0.03466898, -0.52509081, 0.16305077, 0.70742357, 0.00000000, 0.00000000, 0.00000000, 0.00000000
1, 0.6400, 238, -0.40580410, -0.34262854, -1.03678179, 130.53695679, -27.97900391, 198.81059265, -28.23735809, 23.94036865, -73.04881287, 38.36731720, -63.29850769, -28.33828735, 0.82175124, -0.14990629, 0.54897636, 0.02963330, -0.48755550, 0.06372125, 0.68447566, 0.00000000, 0.00000000, 0.00000000, 0.00000000
1, 0.6425, 239, -0.45617652, -0.22287719, -1.00197423, 137.14793396, -35.47246170, 203.58320618, -28.23735809, 23.94036865, -73.04881287, 38.01815796, -63.68290329, -27.56496048, 0.82099742, -0.14990164, 0.55035877, 0.02445656, -0.44017762, -0.05018029, 0.65270478, 0.00000000, 0.00000000, 0.00000000, 0.00000000
1, 0.6450, 240, -0.51965821, -0.09863222, -0.96755981, 142.45645142, -41.87678146, 208.79443359, -28.23735809, 23.94036865, -73.04881287, 37.66445160, -64.08580780, -26.77441025, 0.82012719, -0.14992155, 0.55185902, 0.01914294, -0.37979126, -0.16840574, 0.62160963, 0.00000000, 0.00000000, 0.00000000, 0.00000000
1, 0.6475, 241, -0.58361316, 0.02749320, -0.89266837, 146.38435364, -46.68492889, 212.98275757, -28.23735809, 23.94036865, -73.04881287, 37.30022430, -64.50243378, -25.96402931, 0.81916189, -0.14995451, 0.55344301, 0.01372222, -0.31899035, -0.28835624, 0.55023950, 0.00000000, 0.00000000, 0.00000000, 0.00000000
1, 0.6500, 242, -0.71674168, 0.14562573, -0.84879565, 149.15051270, -50.30809784, 216.00192261, -28.23735809, 23.94036865, -73.04881287, 36.92208481, -64.92855072, -25.13345337, 0.81811726, -0.14999434, 0.55508393, 0.00822554, -0.18903822, -0.40018338, 0.51002860, 0.00000000, 0.00000000, 0.00000000, 0.00000000
1, 0.6525, 243, -0.78856486, 0.37577111, -0.80333376, 150.17556763, -52.26371765, 217.65063477, -27.18503380, 25.02192307, -72.69804382, 36.52473831, -65.35867310, -24.28177643, 0.81701779, -0.15002704, 0.55674636, 0.00269314, -0.12037046, -0.62391955, 0.46828318, 0.00000000, 0.00000000, 0.00000000, 0.00000000
1, 0.6550, 244, -0.78856486, 0.37577111, -0.80333376, 150.17556763, -52.26371765, 217.65063477, -27.18503380, 25.02192307, -72.69804382, 36.10521698, -65.78617096, -23.40868187, 0.81589019, -0.15005453, 0.55838948, -0.00283936, -0.12345615, -0.61745632, 0.47196418, 0.00000000, 0.00000000, 0.00000000, 0.00000000
1, 0.6575, 245, -0.93468034, 0.59145278, -0.73325717, 143.82913208, -50.14567947, 215.74177551, -27.18503380, 25.02192307, -72.69804382, 35.64842224, -66.20386505, -22.51501846, 0.81478155, -0.14998709, 0.55997014, -0.00826741, 0.01969362, -0.82660723, 0.40538257, 0.00000000, 0.00000000, 0.00000000, 0.00000000
1, 0.6600, 246, -0.93468034, 0.59145278, -0.73325717, 143.82913208, -50.14567947, 215.74177551, -27.18503380, 25.02192307, -72.69804382, 35.16759109, -66.61853790, -21.59800339, 0.81364590, -0.14991467, 0.56153226, -0.01369518, 0.01679744, -0.82002735, 0.40884298, 0.00000000, 0.00000000, 0.00000000, 0.00000000
1, 0.6625, 247, -1.08159554, 0.76319766, -0.69464540, 134.22488403, -46.42697906, 207.01113892, -27.18503380, 25.02192307, -72.69804382, 34.66747665, -67.00996399, -20.68891525, 0.81256407, -0.14977287, 0.56298488, -0.01886206, 0.16102290, -0.98535967, 0.37341315, 0.00000000, 0.00000000, 0.00000000, 0.00000000
1, 0.6650, 248, -1.14541543, 0.82639140, -0.68108308, 128.74087524, -45.05923843, 200.47325134, -28.00350761, 27.27272606, -72.28880310, 34.15724182, -67.38612366, -19.78628922, 0.81149614, -0.14960927, 0.56437784, -0.02384961, 0.22229844, -1.04228568, 0.36289361, 0.00000000, 0.00000000, 0.00000000, 0.00000000
1, 0.6675, 249, -1.20237482, 0.87115067, -0.66573972, 123.04450989, -44.23312759, 193.01947021, -28.00350761, 27.27272606, -72.28880310, 33.64412308, -67.74709320, -18.89837456, 0.81043893, -0.14943212, 0.56571960, -0.02863712, 0.27685368, -1.08096075, 0.35047701, 0.00000000, 0.00000000, 0.00000000, 0.00000000
1, 0.6700, 250, -1.24523830, 0.90771788, -0.64896214, 117.21215057, -44.43813324, 184.99264526, -28.00350761, 27.27272606, -72.28880310, 33.13591766, -68.09434509, -18.03373718, 0.80938321, -0.14924735, 0.56702846, -0.03320936, 0.31743908, -1.11165333, 0.33655423, 0.00000000, 0.00000000, 0.00000000, 0.00000000
1, 0.6725, 251, -1.27798963, 0.93249273, -0.62957519, 111.67864990, -46.02301025, 176.80625916, -28.00350761, 27.27272606, -72.28880310, 32.62364197, -68.43347168, -17.18828773, 0.80832106, -0.14899571, 0.56833637, -0.03756819, 0.34799832, -1.13066268, 0.31998697, 0.00000000, 0.00000000, 0.00000000, 0.00000000
1, 0.6750, 252, -1.30256414, 0.94787383, -0.60399443, 106.51110077, -48.36833954, 168.74824524, -28.00350761, 27.27272606, -72.28880310, 32.14622116, -68.76155853, -16.38950157, 0.80722868, -0.14881983, 0.56964481, -0.04170704, 0.37048340, -1.14062095, 0.29727948, 0.00000000, 0.00000000, 0.00000000, 0.00000000
1, 0.6775, 253, -1.32054555, 0.95703584, -0.57119066, 101.84714508, -50.71336746, 160.96833801, -27.76965714, 28.73428726, -71.58725739, 31.68851662, -69.08193970, -15.62610722, 0.80611378, -0.14865775, 0.57096255, -0.04564251, 0.38645375, -1.14458561, 0.26738533, 0.00000000, 0.00000000, 0.00000000, 0.00000000
1, 0.6800, 254, -1.33074200, 0.96018702, -0.53678405, 97.40080261, -53.26628113, 153.32476807, -27.76965714, 28.73428726, -71.58725739, 31.25300217, -69.39562225, -14.89994335, 0.80497479, -0.14851260, 0.57229471, -0.04937907, 0.39470953, -1.14276600, 0.23593852, 0.00000000, 0.00000000, 0.00000000, 0.00000000
1, 0.6825, 255, -1.33462560, 0.96163303, -0.50143892, 93.17381287, -56.17216492, 146.23524475, -27.76965714, 28.73428726, -71.58725739, 30.84018707, -69.70448303, -14.21076298, 0.80380780, -0.14838243, 0.57365018, -0.05292815, 0.39670980, -1.13945067, 0.20362264, 0.00000000, 0.00000000, 0.00000000, 0.00000000
1, 0.6850, 256, -1.33159041, 0.96125537, -0.46528044, 89.38044739, -59.22457123, 139.91163635, -27.76965714, 28.73428726, -71.58725739, 30.44894600, -70.01016235, -13.55602837, 0.80260968, -0.14826609, 0.57503414, -0.05630815, 0.39183730, -1.13449681, 0.17057464, 0.00000000, 0.00000000, 0.00000000, 0.00000000
1, 0.6875, 257, -1.32768726, 0.95777416, -0.42672735, 86.02128601, -62.49275208, 134.35302734, -27.76965714, 28.73428726, -71.58725739, 30.07810402, -70.31439209, -12.93317413, 0.80137688, -0.14816259, 0.57645333, -0.05953730, 0.38613236, -1.12660158, 0.13522843, 0.00000000, 0.00000000, 0.00000000, 0.00000000
1, 0.6900, 258, -1.32378411, 0.95477766, -0.38767803, 82.87430573, -65.21709442, 129.57043457, -27.85735130, 30.16661835, -71.70417786, 29.72288704, -70.61720276, -12.33642960, 0.80011517, -0.14806572, 0.57790083, -0.06263365, 0.38046205, -1.11932504, 0.09946361, 0.00000000, 0.00000000, 0.00000000, 0.00000000
1, 0.6925, 259, -1.32168818, 0.95148516, -0.34569678, 79.58438873, -67.88783264, 125.69828033, -27.85735130, 30.16661835, -71.70417786, 29.37816048, -70.91982269, -11.76061440, 0.79882538, -0.14796196, 0.57937950, -0.06561148, 0.37662631, -1.11184907, 0.06084339, 0.00000000, 0.00000000, 0.00000000, 0.00000000
1, 0.6950, 260, -1.32458365, 0.95346677, -0.30447999, 75.78878784, -70.15772247, 122.46266937, -27.85735130, 30.16661835, -71.70417786, 29.03798485, -71.22233582, -11.20068741, 0.79751366, -0.14783435, 0.58088547, -0.06847680, 0.37780911, -1.10971248, 0.02304581, 0.00000000, 0.00000000, 0.00000000, 0.00000000
1, 0.6975, 261, -1.33019364, 0.96144509, -0.27086428, 71.49238586, -72.64662170, 119.64536285, -27.85735130, 30.16661835, -71.70417786, 28.69969559, -71.52578735, -10.65509319, 0.79617906, -0.14766966, 0.58242512, -0.07122982, 0.38172752, -1.11361623, -0.00708518, 0.00000000, 0.00000000, 0.00000000, 0.00000000
1, 0.7000, 262, -1.34712040, 0.97572619, -0.24323876, 66.69415283, -75.21715546, 117.31816864, -27.85735130, 30.16661835, -71.70417786, 28.35947990, -71.83107758, -10.12107468, 0.79482168, -0.14745347, 0.58400267, -0.07387234, 0.39697933, -1.12384152, -0.03115807, 0.00000000, 0.00000000, 0.00000000, 0.00000000
1, 0.7025, 263, -1.37464774, 1.00096321, -0.22006731, 62.40221024, -78.19509888, 114.77396393, -26.86348915, 32.47588348, -70.76878357, 28.02181435, -72.13892365, -9.60194969, 0.79343522, -0.14719842, 0.58562398, -0.07640564, 0.42284489, -1.14505804, -0.05068710, 0.00000000, 0.00000000, 0.00000000, 0.00000000
1, 0.7050, 264, -1.40462005, 1.02736259, -0.20163876, 59.33608627, -81.64411926, 112.07949829, -26.86348915, 32.47588348, -70.76878357, 27.69291878, -72.45031738, -9.10099220, 0.79201049, -0.14692886, 0.58729511, -0.07884123, 0.45116442, -1.16749501, -0.06535411, 0.00000000, 0.00000000, 0.00000000, 0.00000000
1, 0.7075, 265, -1.43238246, 1.04990315, -0.17911908, 57.42519760, -85.76815796, 108.95246124, -26.86348915, 32.47588348, -70.76878357, 27.38188171, -72.76636505, -8.62461376, 0.79053575, -0.14667185, 0.58902436, -0.08118423, 0.47727799, -1.18616283, -0.08395623, 0.00000000, 0.00000000, 0.00000000, 0.00000000
1, 0.7100, 266, -1.45529985, 1.07502460, -0.15498127, 56.01841736, -90.02378082, 105.68209839, -26.86348915, 32.47588348, -70.76878357, 27.09242439, -73.08738708, -8.17531776, 0.78900838, -0.14643857, 0.59081280, -0.08343827, 0.49855047, -1.20751452, -0.10401078, 0.00000000, 0.00000000, 0.00000000, 0.00000000
1, 0.7125, 267, -1.46860301, 1.09725094, -0.12296460, 54.46838760, -94.41263580, 101.99076843, -26.86348915, 32.47588348, -70.76878357, 26.82904434, -73.41339874, -7.75806093, 0.78742743, -0.14623263, 0.59266150, -0.08559386, 0.51021409, -1.22608995, -0.13177210, 0.00000000, 0.00000000, 0.00000000, 0.00000000
1, 0.7150, 268, -1.48166144, 1.11886215, -0.09083567, 52.63029861, -98.79868317, 97.95072174, -26.80502701, 33.06050873, -70.09646606, 26.59512520, -73.74408722, -7.37702703, 0.78579515, -0.14605401, 0.59456986, -0.08764141, 0.52164072, -1.24418151, -0.15947425, 0.00000000, 0.00000000, 0.00000000, 0.00000000
1, 0.7175, 269, -1.49095345, 1.13815391, -0.05862778, 50.42650223, -102.49022675, 93.57157898, -26.80502701, 33.06050873, -70.09646606, 26.39160156, -74.07777405, -7.03400803, 0.78412199, -0.14589994, 0.59652549, -0.08957261, 0.52931863, -1.26009595, -0.18711334, 0.00000000, 0.00000000, 0.00000000, 0.00000000
1, 0.7200, 270, -1.49987173, 1.15449929, -0.02658795, 48.07380295, -105.62370300, 88.85079956, -26.80502701, 33.06050873, -70.09646606, 26.22077370, -74.41290283, -6.73163319, 0.78241676, -0.14577168, 0.59851819, -0.09138153, 0.53664875, -1.27322066, -0.21446522, 0.00000000, 0.00000000, 0.00000000, 0.00000000
1, 0.7225, 271, -1.50671518, 1.16679800, 0.00538569, 45.57024384, -107.98922729, 83.65133667, -26.80502701, 33.06050873, -70.09646606, 26.06792259, -74.75137329, -6.45826483, 0.78068143, -0.14562374, 0.60055548, -0.09307716, 0.54192168, -1.28237355, -0.24163942, 0.00000000, 0.00000000, 0.00000000, 0.00000000
1, 0.7250, 272, -1.51076019, 1.17615998, 0.03730863, 42.84632492, -109.80177307, 78.39015961, -26.80502701, 33.06050873, -70.09646606, 25.96834946, -75.08403015, -6.24420071, 0.77894378, -0.14554869, 0.60258478, -0.09462437, 0.54445606, -1.28887033, -0.26872304, 0.00000000, 0.00000000, 0.00000000, 0.00000000
1, 0.7275, 273, -1.51041508, 1.18216467, 0.07332590, 40.18888092, -110.98830414, 72.99736023, -27.59427071, 33.44051361, -69.59953308, 25.90646935, -75.41338348, -6.07631540, 0.77720279, -0.14550045, 0.60461694, -0.09604034, 0.54264730, -1.29219615, -0.29986194, 0.00000000, 0.00000000, 0.00000000, 0.00000000
1, 0.7300, 274, -1.50630665, 1.18719494, 0.10993154, 37.80962753, -111.06324768, 67.54879761, -27.59427071, 33.44051361, -69.59953308, 25.88179016, -75.73690033, -5.95322895, 0.77547288, -0.14548261, 0.60663271, -0.09733146, 0.53713214, -1.29474175, -0.33159468, 0.00000000, 0.00000000, 0.00000000, 0.00000000
1, 0.7325, 275, -1.50217998, 1.18609369, 0.14546567, 35.06268311, -110.17003632, 61.97468185, -27.59427071, 33.44051361, -69.59953308, 25.89328957, -76.05233765, -5.87470627, 0.77376878, -0.14548893, 0.60861641, -0.09849393, 0.53166389, -1.29135346, -0.36230388, 0.00000000, 0.00000000, 0.00000000, 0.00000000
1, 0.7350, 276, -1.49610758, 1.18000889, 0.17762020, 32.38542175, -109.00029755, 56.47402573, -27.59427071, 33.44051361, -69.59953308, 25.94215012, -76.35913849, -5.84165764, 0.77209437, -0.14551944, 0.61056376, -0.09953092, 0.52431476, -1.28317869, -0.38969243, 0.00000000, 0.00000000, 0.00000000, 0.00000000
1, 0.7375, 277, -1.48859394, 1.17362130, 0.20561244, 29.19838905, -107.00770569, 51.19601059, -27.59427071, 33.44051361, -69.59953308, 26.02409554, -76.65568542, -5.85085297, 0.77046239, -0.14556114, 0.61246318, -0.10044215, 0.51559353, -1.27488601, -0.41301429, 0.00000000, 0.00000000, 0.00000000, 0.00000000
1, 0.7400, 278, -1.48279738, 1.17118490, 0.23183572, 25.72451019, -105.08811951, 45.98788834, -27.85735130, 34.46360779, -68.22566223, 26.14062691, -76.94219971, -5.90448952, 0.76887316, -0.14560886, 0.61431724, -0.10122482, 0.50865483, -1.27072608, -0.43466046, 0.00000000, 0.00000000, 0.00000000, 0.00000000
1, 0.7425, 279, -1.48038614, 1.16154885, 0.25319001, 21.74835968, -103.24578094, 40.99017715, -27.85735130, 34.46360779, -68.22566223, 26.29128456, -77.21904755, -6.00328302, 0.76732755, -0.14565188, 0.61612946, -0.10187560, 0.50516343, -1.25953734, -0.45153031, 0.00000000, 0.00000000, 0.00000000, 0.00000000
1, 0.7450, 280, -1.48052680, 1.14974570, 0.27048385, 17.48830795, -101.76000977, 36.47814560, -27.85735130, 34.46360779, -68.22566223, 26.47473335, -77.48745728, -6.14648199, 0.76582086, -0.14568006, 0.61790830, -0.10239769, 0.50427842, -1.24633086, -0.46441746, 0.00000000, 0.00000000, 0.00000000, 0.00000000
1, 0.7475, 281, -1.48261881, 1.14573562, 0.29242229, 12.79901886, -100.48927307, 32.17441940, -27.85735130, 34.46360779, -68.22566223, 26.69113350, -77.74812317, -6.33527946, 0.76435161, -0.14568426, 0.61965913, -0.10278812, 0.50539488, -1.24105668, -0.48201984, 0.00000000, 0.00000000, 0.00000000, 0.00000000
1, 0.7500, 282, -1.48364866, 1.13506293, 0.29910406, 7.90262747, -100.25801086, 27.78733444, -27.85735130, 34.46360779, -68.22566223, 26.94872475, -78.00315857, -6.57853413, 0.76290685, -0.14566483, 0.62140000, -0.10303941, 0.50548983, -1.22926319, -0.48439193, 0.00000000, 0.00000000, 0.00000000, 0.00000000
1, 0.7525, 283, -1.48238301, 1.12843108, 0.30767599, 2.93231845, -100.44947052, 19.40817261, -27.65273285, 34.93130493, -67.14411163, 27.29514694, -78.24876404, -6.92504263, 0.76149023, -0.14567597, 0.62312537, -0.10308271, 0.50334215, -1.22182608, -0.48866278, 0.00000000, 0.00000000, 0.00000000, 0.00000000
1, 0.7550, 284, -1.48238301, 1.12843108, 0.30767599, 2.93231845, -100.44947052, 19.40817261, -27.65273285, 34.93130493, -67.14411163, 27.65630341, -78.49395752, -7.28627682, 0.76006985, -0.14568639, 0.62484765, -0.10312550, 0.50247955, -1.22101951, -0.48435801, 0.00000000, 0.00000000, 0.00000000, 0.00000000
1, 0.7575, 285, -1.46396506, 1.11799693, 0.32984066, -11.78291607, -104.53262329, 10.51851177, -27.65273285, 34.93130493, -67.14411163, 28.11846542, -78.73721313, -7.78777647, 0.75865656, -0.14558239, 0.62663925, -0.10280676, 0.48322344, -1.21004546, -0.50209874, 0.00000000, 0.00000000, 0.00000000, 0.00000000
1, 0.7600, 286, -1.46396506, 1.11799693, 0.32984066, -11.78291607, -104.53262329, 10.51851177, -27.65273285, 34.93130493, -67.14411163, 28.60182190, -78.97969055, -8.31042671, 0.75723934, -0.14547764, 0.62842757, -0.10248750, 0.48240566, -1.20950782, -0.49767080, 0.00000000, 0.00000000, 0.00000000, 0.00000000
1, 0.7625, 287, -1.42282319, 1.09811056, 0.35841274, -21.18506432, -107.93305969, 0.99128276, -27.65273285, 34.93130493, -67.14411163, 29.21484947, -79.21710968, -8.98865986, 0.75582242, -0.14535497, 0.63025939, -0.10187057, 0.44048023, -1.18942606, -0.52170306, 0.00000000, 0.00000000, 0.00000000, 0.00000000
1, 0.7650, 288, -1.40028369, 1.08502996, 0.37784013, -26.35603714, -109.29364777, -3.62631083, -27.79888916, 35.83747482, -66.12101746, 29.90655708, -79.45029449, -9.75956917, 0.75440896, -0.14521271, 0.63210678, -0.10110150, 0.41718745, -1.17631590, -0.53654891, 0.00000000, 0.00000000, 0.00000000, 0.00000000
1, 0.7675, 289, -1.38307655, 1.06985927, 0.39553565, -31.38854218, -110.02867126, -8.30581474, -27.79888916, 35.83747482, -66.12101746, 30.67877579, -79.67736816, -10.62456417, 0.75300699, -0.14505289, 0.63395870, -0.10018304, 0.39926243, -1.16128743, -0.54964793, 0.00000000, 0.00000000, 0.00000000, 0.00000000
1, 0.7700, 290, -1.36499417, 1.04525614, 0.41112983, -35.70727921, -110.19867706, -13.25975132, -27.79888916, 35.83747482, -66.12101746, 31.53705406, -79.89612579, -11.58736801, 0.75162244, -0.14489008, 0.63580304, -0.09912230, 0.38050306, -1.13701713, -0.56065279, 0.00000000, 0.00000000, 0.00000000, 0.00000000
1, 0.7725, 291, -1.33939064, 1.01593983, 0.42345932, -39.23809052, -110.01620483, -18.14154434, -27.79888916, 35.83747482, -66.12101746, 32.45716476, -80.11346436, -12.62389565, 0.75022781, -0.14467859, 0.63767499, -0.09796439, 0.35424107, -1.10808504, -0.56833696, 0.00000000, 0.00000000, 0.00000000, 0.00000000
1, 0.7750, 292, -1.29874539, 0.98446900, 0.43658042, -42.69610977, -109.90559387, -22.81472778, -27.79888916, 35.83747482, -66.12101746, 33.49482727, -80.31292725, -13.78519630, 0.74887979, -0.14453156, 0.63949090, -0.09664975, 0.31300408, -1.07732952, -0.57690465, 0.00000000, 0.00000000, 0.00000000, 0.00000000
1, 0.7775, 293, -1.25385392, 0.95203459, 0.44967806, -46.30126572, -109.38200378, -27.41189003, -27.47734642, 35.04823303, -64.45483398, 34.62113953, -80.50111389, -15.04487133, 0.74755484, -0.14438765, 0.64128691, -0.09521068, 0.26756519, -1.04579520, -0.58548468, 0.00000000, 0.00000000, 0.00000000, 0.00000000
1, 0.7800, 294, -1.20702338, 0.91561234, 0.45855594, -49.62008286, -108.65350342, -31.65750885, -27.47734642, 35.04823303, -64.45483398, 35.83254242, -80.67739105, -16.39853859, 0.74625409, -0.14424649, 0.64306003, -0.09365756, 0.22023165, -1.01044679, -0.58988965, 0.00000000, 0.00000000, 0.00000000, 0.00000000
1, 0.7825, 295, -1.16030705, 0.87807113, 0.46827236, -52.44070435, -107.29936981, -35.75639343, -27.47734642, 35.04823303, -64.45483398, 37.12335968, -80.83989716, -17.83915710, 0.74498409, -0.14411303, 0.64479911, -0.09200169, 0.17305979, -0.97414994, -0.59520364, 0.00000000, 0.00000000, 0.00000000, 0.00000000
1, 0.7850, 296, -1.11359131, 0.83362651, 0.47067341, -55.05213928, -105.18049622, -39.91553116, -27.47734642, 35.04823303, -64.45483398, 38.48651886, -80.98652649, -19.35902405, 0.74375492, -0.14399035, 0.64649123, -0.09024747, 0.12593988, -0.93112540, -0.59330541, 0.00000000, 0.00000000, 0.00000000, 0.00000000
1, 0.7875, 297, -1.06942260, 0.78360301, 0.46688437, -57.38337326, -102.09731293, -43.57292938, -27.47734642, 35.04823303, -64.45483398, 39.90359116, -81.11553955, -20.93877983, 0.74257815, -0.14387429, 0.64812165, -0.08841005, 0.08142091, -0.88267809, -0.58536166, 0.00000000, 0.00000000, 0.00000000, 0.00000000
1, 0.7900, 298, -1.02548933, 0.72397965, 0.45512825, -59.28855133, -98.32321167, -46.87265015, -27.47734642, 35.04823303, -63.46097565, 41.35844040, -81.22577667, -22.56105995, 0.74146163, -0.14376567, 0.64967942, -0.08650342, 0.03719231, -0.82477438, -0.56962460, 0.00000000, 0.00000000, 0.00000000, 0.00000000
1, 0.7925, 299, -0.98801851, 0.66993207, 0.43821624, -60.62390518, -93.85686493, -49.81513977, -28.50043869, 35.01900101, -63.46097565, 42.83329391, -81.31642151, -24.20654106, 0.74041283, -0.14366771, 0.65115350, -0.08454365, -0.00051862, -0.77257735, -0.54893386, 0.00000000, 0.00000000, 0.00000000, 0.00000000
1, 0.8175, 300, -0.49813685, 0.16720229, 0.45310077, -22.09060478, 5.16674614, -74.54609680, -28.70505714, 33.41128159, -61.73633194, 54.28556442, -80.84689331, -36.84503937, 0.73620439, -0.14715011, 0.65720439, -0.06657569, -0.48912987, -0.29635975, -0.54595923, 0.00000000, 0.00000000, 0.00000000, 0.00000000
1, 0.8200, 301, -0.45920721, 0.11556753, 0.43988863, -19.02338982, 16.62487984, -74.68051147, -28.70505714, 33.41128159, -61.73633194, 54.69658279, -80.67079163, -37.30964279, 0.73661125, -0.14789099, 0.65672433, -0.06515673, -0.52756608, -0.24786389, -0.53357166, 0.00000000, 0.00000000, 0.00000000, 0.00000000
1, 0.8225, 302, -0.42527744, 0.06560643, 0.41974708, -16.45388031, 27.51562691, -74.26146698, -28.70505714, 33.41128159, -61.73633194, 55.05063629, -80.49681091, -37.70127869, 0.73702705, -0.14868279, 0.65620399, -0.06388153, -0.56099892, -0.20093428, -0.51432657, 0.00000000, 0.00000000, 0.00000000, 0.00000000
1, 0.8250, 303, -0.39091268, 0.02130187, 0.39101523, -13.87869358, 37.84148788, -73.15071106, -28.70505714, 33.41128159, -61.73633194, 55.17551804, -80.29270935, -37.86311722, 0.73771453, -0.14945389, 0.65537661, -0.06262928, -0.59476936, -0.15971899, -0.48730552, 0.00000000, 0.00000000, 0.00000000, 0.00000000
1, 0.8275, 304, -0.35850969, -0.02122498, 0.35767111, -11.44338226, 47.74618912, -71.76544189, -28.70505714, 33.41128159, -61.73633194, 55.17277145, -80.07725525, -37.88935471, 0.73853123, -0.15023032, 0.65438861, -0.06146620, -0.62653124, -0.12022904, -0.45608401, 0.00000000, 0.00000000, 0.00000000, 0.00000000
1, 0.8300, 305, -0.32538551, -0.06190652, 0.32447594, -9.07559681, 57.16225433, -70.17675781, -28.73428726, 32.50511551, -62.08710861, 55.05468750, -79.85162354, -37.79248047, 0.73946971, -0.15100902, 0.65324843, -0.06039316, -0.65896916, -0.08252320, -0.42540148, 0.00000000, 0.00000000, 0.00000000, 0.00000000
1, 0.8325, 306, -0.28862819, -0.10219371, 0.29066843, -6.63153124, 66.02729034, -68.73567200, -28.73428726, 32.50511551, -62.08710861, 54.83699799, -79.61614227, -37.58809662, 0.74052149, -0.15179431, 0.65196419, -0.05940716, -0.69499409, -0.04515751, -0.39447105, 0.00000000, 0.00000000, 0.00000000, 0.00000000
1, 0.8350, 307, -0.25088695, -0.14519949, 0.25816140, -4.40080261, 74.61338043, -67.29766846, -28.73428726, 32.50511551, -62.08710861, 54.52974701, -79.37104034, -37.28678513, 0.74168277, -0.15258338, 0.65054005, -0.05850428, -0.73195529, -0.00501867, -0.36519349, 0.00000000, 0.00000000, 0.00000000, 0.00000000
1, 0.8375, 308, -0.20671216, -0.18918122, 0.22721483, -2.38074136, 82.57648468, -66.00731659, -28.73428726, 32.50511551, -62.08710861, 54.14728928, -79.11660767, -36.90356064, 0.74294490, -0.15337586, 0.64898545, -0.05767715, -0.77530122, 0.03614486, -0.33780235, 0.00000000, 0.00000000, 0.00000000, 0.00000000
1, 0.8400, 309, -0.15572038, -0.23797342, 0.19960219, -0.71583873, 90.04937744, -64.58256531, -28.73428726, 32.50511551, -62.08710861, 53.69920731, -78.85354614, -36.44889069, 0.74430138, -0.15416491, 0.64730883, -0.05692139, -0.82541573, 0.08217455, -0.31405121, 0.00000000, 0.00000000, 0.00000000, 0.00000000
1, 0.8425, 310, -0.09889015, -0.29384646, 0.17040284, 0.59653205, 96.75182343, -62.81740189, -29.17275620, 32.62203979, -62.90558243, 53.19552231, -78.58332825, -35.93376923, 0.74574131, -0.15494107, 0.64552367, -0.05623500, -0.88132340, 0.13535661, -0.28898782, 0.00000000, 0.00000000, 0.00000000, 0.00000000
1, 0.8450, 311, -0.03891699, -0.35692951, 0.09599582, 0.76678252, 102.60167694, -60.36067963, -29.17275620, 32.62203979, -62.90558243, 52.64154816, -78.30830383, -35.36637115, 0.74725521, -0.15567720, 0.64364725, -0.05561040, -0.94033509, 0.19585526, -0.21896148, 0.00000000, 0.00000000, 0.00000000, 0.00000000
1, 0.8475, 312, 0.08069133, -0.49425241, 0.04855772, 0.22919239, 107.25570679, -57.14850616, -29.17275620, 32.62203979, -62.90558243, 52.04534912, -78.03134918, -34.75664902, 0.74882722, -0.15635274, 0.64170206, -0.05504603, -1.05895245, 0.33073634, -0.17610231, 0.00000000, 0.00000000, 0.00000000, 0.00000000
1, 0.8500, 313, 0.14940348, -0.56873775, 0.00071947, -1.00651789, 110.42378235, -47.93935394, -29.17275620, 32.62203979, -62.90558243, 51.37856293, -77.76622772, -34.07728958, 0.75043154, -0.15687428, 0.63973355, -0.05462524, -1.12669456, 0.40318212, -0.13298233, 0.00000000, 0.00000000, 0.00000000, 0.00000000
1, 0.8525, 314, 0.14940348, -0.56873775, 0.00071947, -1.00651789, 110.42378235, -47.93935394, -29.17275620, 32.62203979, -62.90558243, 50.74030685, -77.49948883, -33.42645645, 0.75203067, -0.15739474, 0.63776064, -0.05420407, -1.12569749, 0.40114486, -0.13769601, 0.00000000, 0.00000000, 0.00000000, 0.00000000
1, 0.8550, 315, 0.29565990, -0.72474682, -0.10718041, -4.51679707, 110.90090179, -36.31136322, -29.34814262, 31.92049026, -64.04560089, 50.03382492, -77.25279999, -32.71403122, 0.75362968, -0.15769421, 0.63581979, -0.05392611, -1.27101290, 0.55563533, -0.03455105, 0.00000000, 0.00000000, 0.00000000, 0.00000000
1, 0.8575, 316, 0.29565990, -0.72474682, -0.10718041, -4.51679707, 110.90090179, -36.31136322, -29.34814262, 31.92049026, -64.04560089, 49.35422516, -77.00421143, -32.02851486, 0.75522387, -0.15799265, 0.63387477, -0.05364780, -1.27004671, 0.55411929, -0.03930187, 0.00000000, 0.00000000, 0.00000000, 0.00000000
1, 0.8600, 317, 0.46761426, -0.90948671, -0.17475882, -12.34907341, 104.36057281, -21.40726471, -29.34814262, 31.92049026, -64.04560089, 48.62832260, -76.79264832, -31.31489563, 0.75673258, -0.15796264, 0.63209420, -0.05348388, -1.44116378, 0.73802948, 0.02374940, 0.00000000, 0.00000000, 0.00000000, 0.00000000
1, 0.8625, 318, 0.54800981, -0.99452627, -0.22009422, -19.27283669, 99.86870575, -12.91285229, -29.34814262, 31.92049026, -64.04560089, 47.88314819, -76.60234070, -30.59869766, 0.75818938, -0.15770561, 0.63042188, -0.05334896, -1.52079511, 0.82264954, 0.06469974, 0.00000000, 0.00000000, 0.00000000, 0.00000000
1, 0.8725, 319, 0.79218793, -1.27357912, -0.39239901, -52.29927444, 76.67787933, 32.97114944, -28.26658821, 30.98509216, -64.95176697, 44.56882477, -76.09992218, -27.58943558, 0.76337194, -0.15401219, 0.62506753, -0.05323608, -1.76290393, 1.10499430, 0.22125739, 0.00000000, 0.00000000, 0.00000000, 0.00000000
1, 0.8750, 320, 0.83194941, -1.31047451, -0.43031549, -60.93648529, 71.60612488, 46.49898911, -28.26658821, 30.98509216, -64.95176697, 43.57735062, -76.05216980, -26.72489929, 0.76449716, -0.15227968, 0.62410039, -0.05341996, -1.80246496, 1.14431858, 0.25569636, 0.00000000, 0.00000000, 0.00000000, 0.00000000
1, 0.8775, 321, 0.86417782, -1.33764172, -0.46317971, -67.84722137, 66.47355652, 60.50993729, -28.26658821, 30.98509216, -64.95176697, 42.50647736, -76.03395844, -25.79623222, 0.76555490, -0.15024626, 0.62326998, -0.05372607, -1.83461726, 1.17457020, 0.28525835, 0.00000000, 0.00000000, 0.00000000, 0.00000000
1, 0.8800, 322, 0.88051808, -1.35236895, -0.48555636, -72.24534607, 61.77772141, 74.65847778, -28.82198143, 31.13124847, -65.85793304, 41.35219955, -76.04380035, -24.79292679, 0.76654148, -0.14795153, 0.62256539, -0.05419295, -1.85099840, 1.19302428, 0.30451095, 0.00000000, 0.00000000, 0.00000000, 0.00000000
1, 0.8825, 323, 0.87798238, -1.36901796, -0.49998096, -73.91846466, 57.93385696, 89.08941650, -28.82198143, 31.13124847, -65.85793304, 40.10654831, -76.07936096, -23.69989967, 0.76745856, -0.14543623, 0.62196898, -0.05486561, -1.84861207, 1.21403480, 0.31597516, 0.00000000, 0.00000000, 0.00000000, 0.00000000
1, 0.8850, 324, 0.86635584, -1.38668060, -0.51525789, -73.22415924, 54.72980118, 103.87100983, -28.82198143, 31.13124847, -65.85793304, 38.76105881, -76.13861847, -22.50245285, 0.76830572, -0.14273460, 0.62146699, -0.05578456, -1.83723390, 1.23668957, 0.32844660, 0.00000000, 0.00000000, 0.00000000, 0.00000000
1, 0.8875, 325, 0.85208887, -1.39355934, -0.51166803, -69.94474030, 52.02029800, 119.56005859, -28.82198143, 31.13124847, -65.85793304, 37.30343628, -76.22033691, -21.18144417, 0.76907939, -0.13987713, 0.62104928, -0.05700198, -1.82330811, 1.24920845, 0.32220370, 0.00000000, 0.00000000, 0.00000000, 0.00000000
1, 0.8900, 326, 0.83066833, -1.38956082, -0.49726582, -64.94514465, 50.07423782, 136.16307068, -28.82198143, 31.13124847, -65.85793304, 35.71623993, -76.32225800, -19.71471596, 0.76978201, -0.13687943, 0.62070161, -0.05855912, -1.80230927, 1.25152159, 0.30527875, 0.00000000, 0.00000000, 0.00000000, 0.00000000
1, 0.8925, 327, 0.80604380, -1.37337053, -0.48535877, -58.44093704, 48.82587433, 153.33015442, -27.74042702, 32.32972717, -65.94563293, 33.98368454, -76.44113159, -18.08237648, 0.77041644, -0.13375831, 0.62040985, -0.06048815, -1.77817321, 1.24232626, 0.29095814, 0.00000000, 0.00000000, 0.00000000, 0.00000000
1, 0.8950, 328, 0.76793480, -1.34246457, -0.46660018, -50.42741394, 47.72019958, 171.12368774, -27.74042702, 32.32972717, -65.94563293, 32.09173965, -76.57437897, -16.26638985, 0.77097750, -0.13053051, 0.62016869, -0.06282058, -1.74060726, 1.21911132, 0.26989490, 0.00000000, 0.00000000, 0.00000000, 0.00000000
1, 0.8975, 329, 0.72708839, -1.29117322, -0.44715729, -41.11744308, 46.41010284, 189.46972656, -27.74042702, 32.32972717, -65.94563293, 30.02725601, -76.71939850, -14.25020599, 0.77145553, -0.12721059, 0.61997813, -0.06558271, -1.70034552, 1.17621851, 0.24826807, 0.00000000, 0.00000000, 0.00000000, 0.00000000
1, 0.9000, 330, 0.67199457, -1.21400058, -0.41959056, -31.37275696, 44.75235367, 208.15936279, -27.74042702, 32.32972717, -65.94563293, 27.77642822, -76.87299347, -12.01883411, 0.77184147, -0.12380163, 0.61984068, -0.06878525, -1.64586353, 1.10816193, 0.21864921, 0.00000000, 0.00000000, 0.00000000, 0.00000000
1, 0.9025, 331, 0.60711753, -1.11120391, -0.39026737, -22.20161247, 42.88372040, 226.70808411, -27.74042702, 32.32972717, -65.94563293, 25.32633972, -77.03048706, -9.56080818, 0.77213126, -0.12029616, 0.61975628, -0.07241745, -1.58160710, 1.01519740, 0.18740544, 0.00000000, 0.00000000, 0.00000000, 0.00000000
1, 0.9050, 332, 0.52699131, -0.98227894, -0.36185709, -14.68968296, 41.63047028, 244.78103638, -27.59427071, 33.35282135, -65.62408447, 22.66200829, -77.18428040, -6.86527395, 0.77233458, -0.11667152, 0.61971146, -0.07645037, -1.50208020, 0.89681458, 0.15716633, 0.00000000, 0.00000000, 0.00000000, 0.00000000
1, 0.9075, 333, 0.43367404, -0.83398950, -0.34216598, -9.19402122, 40.64855957, 262.02499390, -27.59427071, 33.35282135, -65.62408447, 19.77621651, -77.32669830, -3.93018579, 0.77245766, -0.11290434, 0.61969846, -0.08084323, -1.40931106, 0.75975895, 0.13571316, 0.00000000, 0.00000000, 0.00000000, 0.00000000
1, 0.9100, 334, 0.33201912, -0.67553967, -0.33940986, -6.22066021, 40.08931732, 277.32452393, -27.59427071, 33.35282135, -65.62408447, 16.67713547, -77.44836426, -0.77045232, 0.77251148, -0.10897743, 0.61970538, -0.08552987, -1.30811989, 0.61317384, 0.13123137, 0.00000000, 0.00000000, 0.00000000, 0.00000000
1, 0.9125, 335, 0.23932643, -0.52440649, -0.34655991, -5.04582405, 39.21215820, 289.75814819, -27.59427071, 33.35282135, -65.62408447, 13.39504814, -77.54167175, 2.57842660, 0.77249724, -0.10489960, 0.61973023, -0.09043651, -1.21577954, 0.47442970, 0.13669869, 0.00000000, 0.00000000, 0.00000000, 0.00000000
1, 0.9150, 336, 0.14406772, -0.40458789, -0.35699466, -4.88031244, 38.35634232, 300.23699951, -27.59427071, 33.35282135, -65.62408447, 9.95918751, -77.59970093, 6.08420181, 0.77241778, -0.10068015, 0.61976701, -0.09551620, -1.12073910, 0.36744928, 0.14548978, 0.00000000, 0.00000000, 0.00000000, 0.00000000
1, 0.9175, 337, 0.04119008, -0.30595678, -0.38423485, -4.36085892, 38.06657791, 310.16287231, -26.13270950, 37.00672150, -67.11487579, 6.39296722, -77.61581421, 9.72427559, 0.77227771, -0.09633132, 0.61980152, -0.10076523, -1.01792169, 0.28207666, 0.17110214, 0.00000000, 0.00000000, 0.00000000, 0.00000000
1, 0.9200, 338, -0.07997806, -0.20127758, -0.43639541, -1.75470126, 37.45778656, 319.58801270, -26.13270950, 37.00672150, -67.11487579, 2.73141503, -77.58596039, 13.46872044, 0.77206630, -0.09189569, 0.61983061, -0.10620217, -0.89664173, 0.19103321, 0.22166502, 0.00000000, 0.00000000, 0.00000000, 0.00000000
1, 0.9225, 339, -0.21253416, -0.07389302, -0.49820524, 3.44665313, 35.72029114, 327.45068359, -26.13270950, 37.00672150, -67.11487579, -0.96468920, -77.49889374, 17.25877571, 0.77182531, -0.08741950, 0.61979330, -0.11180301, -0.76375782, 0.07753740, 0.28177702, 0.00000000, 0.00000000, 0.00000000, 0.00000000
1, 0.9250, 340, -0.34120983, 0.07470452, -0.53758061, 10.30531025, 33.07067108, 332.63781738, -26.13270950, 37.00672150, -67.11487579, -4.64864397, -77.37551117, 21.05942917, 0.77142096, -0.08301230, 0.61982924, -0.11760346, -0.63461363, -0.05699128, 0.31973922, 0.00000000, 0.00000000, 0.00000000, 0.00000000
1, 0.9275, 341, -0.44985461, 0.22763418, -0.56385547, 17.52143860, 30.31777954, 335.79412842, -26.13270950, 37.00672150, -67.11487579, -8.26629257, -77.20572662, 24.81277275, 0.77091670, -0.07868645, 0.61986530, -0.12354328, -0.52531677, -0.19579518, 0.34470454, 0.00000000, 0.00000000, 0.00000000, 0.00000000
1, 0.9300, 342, -0.55784523, 0.36692363, -0.59034055, 24.66173744, 27.92139053, 338.25619507, -24.84653664, 40.66062546, -67.05641174, -11.78734303, -76.98966217, 28.48820877, 0.77031904, -0.07444957, 0.61989284, -0.12961021, -0.41648424, -0.32093465, 0.36996025, 0.00000000, 0.00000000, 0.00000000, 0.00000000
1, 0.9325, 343, -0.66578907, 0.51099014, -0.59830076, 32.30377579, 25.60773277, 340.15814209, -24.84653664, 40.66062546, -67.05641174, -15.18535328, -76.72894287, 32.06044769, 0.76962948, -0.07031779, 0.61990631, -0.13580149, -0.30750579, -0.45085904, 0.37675759, 0.00000000, 0.00000000, 0.00000000, 0.00000000
1, 0.9350, 344, -0.77770096, 0.65454423, -0.59746242, 40.15975571, 23.31366539, 340.94061279, -24.84653664, 40.66062546, -67.05641174, -18.43383217, -76.42655182, 35.50330353, 0.76885140, -0.06631019, 0.61990148, -0.14210103, -0.19436884, -0.58033246, 0.37481219, 0.00000000, 0.00000000, 0.00000000, 0.00000000
1, 0.9375, 345, -0.87429094, 0.79033923, -0.59066445, 47.22929001, 20.20881844, 339.96621704, -24.84653664, 40.66062546, -67.05641174, -21.51187515, -76.08860016, 38.79354095, 0.76798087, -0.06244024, 0.61989045, -0.14846733, -0.09637766, -0.70217824, 0.36699030, 0.00000000, 0.00000000, 0.00000000, 0.00000000
1, 0.9400, 346, -0.96036214, 0.91526043, -0.56792432, 53.15515900, 16.20413017, 338.28393555, -24.84653664, 40.66062546, -67.05641174, -24.41757965, -75.72120667, 41.92639160, 0.76701039, -0.05870179, 0.61989021, -0.15487179, -0.00874483, -0.81330317, 0.34334388, 0.00000000, 0.00000000, 0.00000000, 0.00000000
1, 0.9425, 347, -1.04493880, 1.03093159, -0.50805879, 57.13932037, 12.25383949, 336.39889526, -24.84653664, 40.66062546, -67.05641174, -27.15662193, -75.32765198, 44.90271759, 0.76594514, -0.05506558, 0.61990577, -0.16128492, 0.07754880, -0.91532338, 0.28268945, 0.00000000, 0.00000000, 0.00000000, 0.00000000
1, 0.9450, 348, -1.20609748, 1.13972318, -0.48211247, 59.02930832, 9.33253193, 333.90521240, -22.30341911, 43.46682358, -67.78719330, -29.72964859, -74.90943146, 47.71767426, 0.76480454, -0.05150191, 0.61992627, -0.16766952, 0.24058217, -1.01061571, 0.25603449, 0.00000000, 0.00000000, 0.00000000, 0.00000000
1, 0.9475, 349, -1.27551997, 1.33556151, -0.44402373, 59.61827469, 7.10579252, 330.51593018, -22.30341911, 43.46682358, -67.78719330, -32.13639450, -74.46936035, 50.36746216, 0.76360410, -0.04799926, 0.61994433, -0.17399396, 0.31203270, -1.19313323, 0.21729356, 0.00000000, 0.00000000, 0.00000000, 0.00000000
1, 0.9500, 350, -1.27551997, 1.33556151, -0.44402373, 59.61827469, 7.10579252, 330.51593018, -22.30341911, 43.46682358, -67.78719330, -34.40021515, -74.00111389, 52.87458420, 0.76236272, -0.04449404, 0.61992913, -0.18030904, 0.31425309, -1.17984533, 0.21660739, 0.00000000, 0.00000000, 0.00000000, 0.00000000
1, 0.9525, 351, -1.41173482, 1.49412847, -0.37435305, 57.31487274, 4.96531248, 315.52728271, -22.30341911, 43.46682358, -67.78719330, -36.44026184, -73.53375244, 55.14853668, 0.76111448, -0.04115934, 0.61991221, -0.18633237, 0.45274806, -1.32576323, 0.14632347, 0.00000000, 0.00000000, 0.00000000, 0.00000000
1, 0.9550, 352, -1.41173482, 1.49412847, -0.37435305, 57.31487274, 4.96531248, 315.52728271, -22.30341911, 43.46682358, -67.78719330, -38.35929489, -73.04470825, 57.30175018, 0.75982881, -0.03782263, 0.61986488, -0.19234659, 0.45520246, -1.31314838, 0.14567906, 0.00000000, 0.00000000, 0.00000000, 0.00000000
1, 0.9575, 353, -1.55470729, 1.62176740, -0.32787073, 54.57806015, 3.28569150, 301.80517578, -20.69570351, 46.03916931, -68.48874664, -40.09465408, -72.56113434, 59.26112366, 0.75854474, -0.03463139, 0.61981660, -0.19808596, 0.60067028, -1.42875266, 0.09861457, 0.00000000, 0.00000000, 0.00000000, 0.00000000
1, 0.9600, 354, -1.60343790, 1.67364872, -0.30925807, 54.01341629, 0.76793468, 294.21936035, -20.69570351, 46.03916931, -68.48874664, -41.69995117, -72.07804871, 61.08768082, 0.75722665, -0.03154274, 0.61977953, -0.20368157, 0.65196145, -1.46894336, 0.07950132, 0.00000000, 0.00000000, 0.00000000, 0.00000000
1, 0.9625, 355, -1.63481283, 1.71970773, -0.29052567, 52.80933380, -2.65595675, 286.62332153, -20.69570351, 46.03916931, -68.48874664, -43.19351578, -71.59928894, 62.79848099, 0.75586551, -0.02855080, 0.61977351, -0.20912464, 0.68594098, -1.50364959, 0.06039429, 0.00000000, 0.00000000, 0.00000000, 0.00000000
1, 0.9650, 356, -1.65404880, 1.75811970, -0.27474573, 50.32013321, -7.13159466, 279.08718872, -20.69570351, 46.03916931, -68.48874664, -44.59532166, -71.12837982, 64.41059875, 0.75444990, -0.02563901, 0.61982352, -0.21439874, 0.70780337, -1.53102815, 0.04442278, 0.00000000, 0.00000000, 0.00000000, 0.00000000
1, 0.9675, 357, -1.67202806, 1.78896689, -0.25395191, 46.75901413, -12.31517315, 271.89465332, -20.69570351, 46.03916931, -68.48874664, -45.92314911, -70.66719055, 65.93949127, 0.75297183, -0.02278915, 0.61994833, -0.21949543, 0.72841680, -1.55113494, 0.02366237, 0.00000000, 0.00000000, 0.00000000, 0.00000000
1, 0.9700, 358, -1.69413006, 1.82028484, -0.23302023, 42.34003448, -18.06180763, 264.76721191, -18.62028694, 48.58228683, -68.81028748, -47.19082260, -70.21762848, 67.39708710, 0.75142568, -0.01998981, 0.62016314, -0.22440463, 0.75314528, -1.57199156, 0.00302410, 0.00000000, 0.00000000, 0.00000000, 0.00000000
1, 0.9725, 359, -1.71840930, 1.85436034, -0.20788716, 37.35371017, -24.71610260, 257.76922607, -18.62028694, 48.58228683, -68.81028748, -48.41708374, -69.78042603, 68.80015564, 0.74979687, -0.01721823, 0.62049121, -0.22912644, 0.78003466, -1.59583926, -0.02150128, 0.00000000, 0.00000000, 0.00000000, 0.00000000
1, 0.9750, 360, -1.74595642, 1.88900590, -0.18066131, 32.15294266, -31.57462502, 250.41943359, -18.62028694, 48.58228683, -68.81028748, -49.59915543, -69.35966492, 70.14733124, 0.74809402, -0.01451186, 0.62093151, -0.23364261, 0.81014496, -1.62056625, -0.04780567, 0.00000000, 0.00000000, 0.00000000, 0.00000000
1, 0.9775, 361, -1.77226496, 1.92573035, -0.14363037, 26.95866776, -39.25960541, 242.77868652, -18.62028694, 48.58228683, -68.81028748, -50.75084305, -68.95636749, 71.45175171, 0.74630523, -0.01186297, 0.62150270, -0.23795427, 0.83895808, -1.64765918, -0.08355704, 0.00000000, 0.00000000, 0.00000000, 0.00000000
1, 0.9800, 362, -1.79659784, 1.96219504, -0.09634287, 21.69045830, -46.73425674, 234.93118286, -18.62028694, 48.58228683, -68.81028748, -51.87601089, -68.57092285, 72.71705627, 0.74443609, -0.00927316, 0.62220323, -0.24205804, 0.86572748, -1.67478299, -0.12921149, 0.00000000, 0.00000000, 0.00000000, 0.00000000
1, 0.9825, 363, -1.81703579, 1.99231422, -0.05111565, 16.34547997, -53.71612549, 226.53112793, -16.80795097, 50.07307816, -69.07337189, -52.97547531, -68.20393372, 73.94359589, 0.74249774, -0.00674719, 0.62302703, -0.24594498, 0.88852459, -1.69587302, -0.17246802, 0.00000000, 0.00000000, 0.00000000, 0.00000000
1, 0.9850, 364, -1.82896399, 2.01789045, -0.00353146, 11.13602066, -59.78886414, 217.65333557, -16.80795097, 50.07307816, -69.07337189, -54.04759216, -67.85532379, 75.12969208, 0.74050659, -0.00428992, 0.62396026, -0.24961022, 0.90272939, -1.71275067, -0.21777904, 0.00000000, 0.00000000, 0.00000000, 0.00000000
1, 0.9875, 365, -1.83555150, 2.04212952, 0.04475451, 5.99062872, -64.95755768, 208.57781982, -16.80795097, 50.07307816, -69.07337189, -55.09180069, -67.52458191, 76.27455902, 0.73847753, -0.00190111, 0.62498945, -0.25305244, 0.91150826, -1.72862768, -0.26352373, 0.00000000, 0.00000000, 0.00000000, 0.00000000
1, 0.9900, 366, -1.83748686, 2.06256866, 0.10238198, 0.69952935, -69.91767883, 199.36569214, -16.80795097, 50.07307816, -69.07337189, -56.11138535, -67.21205902, 77.38109589, 0.73641574, 0.00042000, 0.62611365, -0.25626835, 0.91554260, -1.74104440, -0.31834513, 0.00000000, 0.00000000, 0.00000000, 0.00000000
1, 0.9925, 367, -1.84325695, 2.08741403, 0.17743678, -5.01185846, -76.26109314, 189.78648376, -16.80795097, 50.07307816, -69.07337189, -57.11725235, -66.92079926, 78.45967102, 0.73430556, 0.00266655, 0.62735891, -0.25924712, 0.92329347, -1.75821638, -0.39026427, 0.00000000, 0.00000000, 0.00000000, 0.00000000
1, 0.9950, 368, -1.85335243, 2.12407660, 0.27589890, -11.78726482, -84.34331512, 180.04730225, -15.25869656, 51.65156174, -68.92721558, -58.12401962, -66.65357208, 79.52305603, 0.73212528, 0.00484258, 0.62876040, -0.26197264, 0.93522727, -1.78755033, -0.48517296, 0.00000000, 0.00000000, 0.00000000, 0.00000000
1, 0.9975, 369, -1.86169529, 2.16597247, 0.39594427, -19.85224915, -92.98822784, 170.09489441, -15.25869656, 51.65156174, -68.92721558, -59.14071655, -66.41147614, 80.57731628, 0.72986883, 0.00696141, 0.63033539, -0.26442456, 0.94525254, -1.82245827, -0.60120201, 0.00000000, 0.00000000, 0.00000000, 0.00000000
1, 1.0000, 370, -1.87374389, 2.21890640, 0.54256088, -28.64706993, -100.38699341, 159.74212646, -15.25869656, 51.65156174, -68.92721558, -60.16548920, -66.19364166, 81.61824036, 0.72755611, 0.00903510, 0.63206941, -0.26658714, 0.95882970, -1.86875665, -0.74337417, 0.00000000, 0.00000000, 0.00000000, 0.00000000
1, 1.0025, 371, -1.89077044, 2.27766466, 0.69294274, -37.83345413, -104.10305023, 148.39144897, -15.25869656, 51.65156174, -68.92721558, -61.18197250, -65.99765778, 82.62662506, 0.72524416, 0.01107633, 0.63390750, -0.26843917, 0.97724199, -1.92126787, -0.88902020, 0.00000000, 0.00000000, 0.00000000, 0.00000000
1, 1.0050, 372, -1.90722382, 2.33922553, 0.83664548, -47.20452881, -103.09471130, 135.98643494, -15.25869656, 51.65156174, -68.92721558, -62.16815186, -65.82068634, 83.57762146, 0.72300524, 0.01310001, 0.63577753, -0.26996085, 0.99495620, -1.97701323, -1.02787638, 0.00000000, 0.00000000, 0.00000000, 0.00000000
1, 1.0075, 373, -1.92528927, 2.39147711, 0.96016860, -56.26755142, -96.17366028, 122.12189484, -14.70330334, 51.91464615, -68.40105438, -63.09403610, -65.66008759, 84.43888855, 0.72093123, 0.01511491, 0.63758683, -0.27113238, 1.01417303, -2.02394247, -1.14667773, 0.00000000, 0.00000000, 0.00000000, 0.00000000
1, 1.0100, 374, -1.93434060, 2.43790507, 1.05523443, -64.65828705, -83.89263153, 106.92903137, -14.70330334, 51.91464615, -68.40105438, -63.93194580, -65.51435852, 85.18154144, 0.71910655, 0.01712292, 0.63925010, -0.27194101, 1.02427554, -2.06560206, -1.23736668, 0.00000000, 0.00000000, 0.00000000, 0.00000000
1, 1.0125, 375, -1.93786824, 2.47330570, 1.12360311, -72.15706635, -66.73426056, 90.40058899, -14.70330334, 51.91464615, -68.40105438, -64.65598297, -65.38308716, 85.77923584, 0.71760958, 0.01911970, 0.64068860, -0.27237669, 1.02875519, -2.09684753, -1.30190825, 0.00000000, 0.00000000, 0.00000000, 0.00000000
1, 1.0150, 376, -1.93527687, 2.49493742, 1.15936637, -79.25882721, -45.73745728, 72.24432373, -14.70330334, 51.91464615, -68.40105438, -65.24607086, -65.26786804, 86.21054840, 0.71650565, 0.02109852, 0.64184350, -0.27241808, 1.02700353, -2.11500406, -1.33455026, 0.00000000, 0.00000000, 0.00000000, 0.00000000
1, 1.0175, 377, -1.92725623, 2.49028873, 1.16037846, -85.80143738, -22.98894501, 53.13083267, -14.70330334, 51.91464615, -68.40105438, -65.69329071, -65.17089844, 86.46687317, 0.71582657, 0.02304704, 0.64268667, -0.27205700, 1.01969206, -2.10759854, -1.33322382, 0.00000000, 0.00000000, 0.00000000, 0.00000000
1, 1.0200, 378, -1.91237295, 2.47059679, 1.13218546, -91.76690674, -0.50981921, 33.87192535, -13.91405964, 53.05466080, -66.85179901, -65.99997711, -65.09414673, 86.55203247, 0.71557063, 0.02495199, 0.64322084, -0.27129892, 1.00537229, -2.08587718, -1.30347443, 0.00000000, 0.00000000, 0.00000000, 0.00000000
1, 1.0225, 379, -1.89518619, 2.43843699, 1.09108841, -97.35441589, 19.75596428, 14.65171051, -13.91405964, 53.05466080, -66.85179901, -66.18112946, -65.04013824, 86.48282623, 0.71569949, 0.02680083, 0.64348531, -0.27015314, 0.98858297, -2.05239582, -1.26150548, 0.00000000, 0.00000000, 0.00000000, 0.00000000
1, 1.0250, 380, -1.87439048, 2.40010548, 1.03559244, -102.48278809, 36.76391983, -4.12460279, -13.91405964, 53.05466080, -66.85179901, -66.24782562, -65.01251221, 86.27376556, 0.71617800, 0.02855970, 0.64351588, -0.26862773, 0.96799088, -2.01346588, -1.20573604, 0.00000000, 0.00000000, 0.00000000, 0.00000000
1, 1.0275, 381, -1.84779549, 2.35242963, 0.96478885, -107.15258789, 50.58328629, -22.45607185, -13.91405964, 53.05466080, -66.85179901, -66.21882629, -65.01294708, 85.94624329, 0.71695042, 0.03021498, 0.64336526, -0.26674005, 0.94139284, -1.96588218, -1.13512552, 0.00000000, 0.00000000, 0.00000000, 0.00000000
1, 1.0300, 382, -1.81330490, 2.29151845, 0.88496834, -110.57363892, 61.35333633, -39.92375183, -13.91405964, 53.05466080, -66.85179901, -66.10741425, -65.04224396, 85.51837921, 0.71796799, 0.03174104, 0.64307272, -0.26452202, 0.90668595, -1.90572655, -1.05586827, 0.00000000, 0.00000000, 0.00000000, 0.00000000
1, 1.0325, 383, -1.76714563, 2.23489356, 0.81875348, -112.39125061, 69.63242340, -56.59117126, -14.03098488, 54.25314331, -66.29640198, -65.92247009, -65.10073090, 85.00459290, 0.71919012, 0.03310923, 0.64266670, -0.26200929, 0.86009640, -1.85050058, -0.99052012, 0.00000000, 0.00000000, 0.00000000, 0.00000000
1, 1.0350, 384, -1.69971585, 2.17898107, 0.76985806, -113.55007935, 76.65589905, -72.29859924, -14.03098488, 54.25314331, -66.29640198, -65.66904449, -65.18702698, 84.41245270, 0.72059208, 0.03431515, 0.64216155, -0.25922599, 0.79203379, -1.79659712, -0.94276041, 0.00000000, 0.00000000, 0.00000000, 0.00000000
