SensorId, TimeStamp (s), FrameNumber, AccX (g), AccY (g), AccZ (g), GyroX (deg/s), GyroY (deg/s), GyroZ (deg/s), MagX (uT), MagY (uT), MagZ (uT), EulerX (deg), EulerY (deg), EulerZ (deg), QuatW, QuatX, QuatY, QuatZ, LinAccX (g), LinAccY (g), LinAccZ (g), Pressure (kPa), Altitude (m), Temperature (degC), HeaveMotion (m)
1, -0.0000, 0, 0.27156681, -0.95083213, -0.19270889, 4.88971043, -0.66795850, 2.41692042, 11.37094402, -30.57585526, -72.93189240, 77.87081146, 15.49126530, -16.74509239, 0.75021064, -0.63133818, -0.01304626, 0.19602530, -0.00447541, 0.00867367, -0.00977497, 0.00000000, 0.00000000, 0.00000000, 0.00000000
1, 0.0025, 1, 0.27203229, -0.94784355, -0.19523026, 5.17870998, -0.80704337, 2.62390971, 11.37094402, -30.57585526, -72.93189240, 77.88359833, 15.48443031, -16.74571037, 0.75015074, -0.63142025, -0.01297477, 0.19599494, -0.00505587, 0.00560880, -0.00705002, 0.00000000, 0.00000000, 0.00000000, 0.00000000
1, 0.0050, 2, 0.27529779, -0.94586003, -0.19532877, 5.25069761, -0.80747050, 2.69360900, 11.37094402, -30.57585526, -72.93189240, 77.89657593, 15.47742367, -16.74629211, 0.75009012, -0.63150352, -0.01290199, 0.19596347, -0.00843921, 0.00354755, -0.00674492, 0.00000000, 0.00000000, 0.00000000, 0.00000000
1, 0.0075, 3, 0.27686790, -0.94255841, -0.19357069, 5.03469038, -0.74244428, 2.83507681, 11.37094402, -30.57585526, -72.93189240, 77.90906525, 15.47010422, -16.74663353, 0.75003308, -0.63158351, -0.01282926, 0.19592872, -0.01013246, 0.00016856, -0.00830470, 0.00000000, 0.00000000, 0.00000000, 0.00000000
1, 0.0100, 4, 0.27588513, -0.93875450, -0.19338824, 4.52942514, -0.47239128, 2.98027039, 11.37094402, -30.57585526, -72.93189240, 77.92050171, 15.46257019, -16.74621391, 0.74998355, -0.63165641, -0.01276110, 0.19588773, -0.00927642, -0.00370973, -0.00830645, 0.00000000, 0.00000000, 0.00000000, 0.00000000
1, 0.0125, 5, 0.27733016, -0.93543780, -0.19272943, 3.88018417, -0.20148413, 2.98606586, 11.57556248, -29.69891739, -72.69804382, 77.93049622, 15.45516396, -16.74510384, 0.74994290, -0.63171989, -0.01270007, 0.19584273, -0.01084602, -0.00709546, -0.00880797, 0.00000000, 0.00000000, 0.00000000, 0.00000000
1, 0.0150, 6, 0.27866700, -0.93580908, -0.19212686, 3.16032124, -0.07082208, 3.06013083, 11.57556248, -29.69891739, -72.69804382, 77.93878937, 15.44764805, -16.74362564, 0.74991244, -0.63177216, -0.01264324, 0.19579454, -0.01230932, -0.00678748, -0.00928138, 0.00000000, 0.00000000, 0.00000000, 0.00000000
1, 0.0175, 7, 0.27781031, -0.93493176, -0.19357805, 2.29658866, 0.05959558, 3.06472230, 11.57556248, -29.69891739, -72.69804382, 77.94500732, 15.44018555, -16.74181747, 0.74989390, -0.63181078, -0.01259216, 0.19574420, -0.01157814, -0.00772071, -0.00773521, 0.00000000, 0.00000000, 0.00000000, 0.00000000
1, 0.0200, 8, 0.27732468, -0.93638462, -0.19531006, 1.64824402, 0.25796959, 3.27935195, 11.57556248, -29.69891739, -72.69804382, 77.94976807, 15.43230247, -16.73938560, 0.74988514, -0.63183969, -0.01254414, 0.19568744, -0.01122517, -0.00632030, -0.00593251, 0.00000000, 0.00000000, 0.00000000, 0.00000000
1, 0.0225, 9, 0.27805668, -0.93664265, -0.19421573, 1.07203770, 0.39107308, 3.28304029, 11.57556248, -29.69891739, -72.69804382, 77.95318604, 15.42447948, -16.73661804, 0.74988425, -0.63185978, -0.01250071, 0.19562863, -0.01208875, -0.00610984, -0.00697820, 0.00000000, 0.00000000, 0.00000000, 0.00000000
1, 0.0250, 10, 0.27552161, -0.94069493, -0.19537236, 0.63980782, 0.52332240, 3.42612648, 11.16632557, -29.99123001, -73.39958954, 77.95563507, 15.41637611, -16.73343849, 0.74988997, -0.63187349, -0.01245931, 0.19556557, -0.00969005, -0.00210279, -0.00578910, 0.00000000, 0.00000000, 0.00000000, 0.00000000
1, 0.0275, 11, 0.27252170, -0.94483107, -0.19078603, 0.27783608, 0.86285746, 3.64173412, 11.16632557, -29.99123001, -73.39958954, 77.95743561, 15.40791988, -16.72927666, 0.74990141, -0.63188267, -0.01242203, 0.19549415, -0.00683242, 0.00198865, -0.01035398, 0.00000000, 0.00000000, 0.00000000, 0.00000000
1, 0.0300, 12, 0.26729757, -0.93959808, -0.18874006, -0.01026698, 0.92940915, 3.64357829, 11.16632557, -29.99123001, -73.39958954, 77.98262787, 15.40604210, -16.71846008, 0.74978405, -0.63204581, -0.01242602, 0.19541623, -0.00163984, -0.00334120, -0.01198726, 0.00000000, 0.00000000, 0.00000000, 0.00000000
1, 0.0325, 13, 0.26269349, -0.93987054, -0.18836822, -0.22759783, 1.07136261, 3.29651308, 11.16632557, -29.99123001, -73.39958954, 77.98324585, 15.39853859, -16.71396446, 0.74980098, -0.63204759, -0.01239906, 0.19534747, 0.00283796, -0.00310504, -0.01235603, 0.00000000, 0.00000000, 0.00000000, 0.00000000
1, 0.0350, 14, 0.26269349, -0.93987054, -0.18836822, -0.22759783, 1.07136261, 3.29651308, 11.16632557, -29.99123001, -73.39958954, 77.98387909, 15.39103794, -16.70946503, 0.74981791, -0.63204938, -0.01237210, 0.19527872, 0.00271171, -0.00314123, -0.01235293, 0.00000000, 0.00000000, 0.00000000, 0.00000000
1, 0.0750, 15, 0.26592276, -0.93180364, -0.19265044, -7.21043539, 1.55570710, -0.80056071, 11.80941200, -30.40046692, -73.57497406, 77.76917267, 15.38324547, -16.63900375, 0.75113386, -0.63063353, -0.01307303, 0.19475256, -0.00064865, -0.01048452, -0.01161058, 0.00000000, 0.00000000, 0.00000000, 0.00000000
1, 0.0775, 16, 0.27028441, -0.93080521, -0.19227749, -6.92222643, 1.48805678, -0.73247993, 11.80941200, -30.40046692, -73.57497406, 77.75276184, 15.38582420, -16.63563919, 0.75122559, -0.63052619, -0.01313690, 0.19474211, -0.00496689, -0.01141286, -0.01225093, 0.00000000, 0.00000000, 0.00000000, 0.00000000
1, 0.0800, 17, 0.27077100, -0.93044639, -0.19141760, -6.41941833, 1.55979753, -0.59327048, 11.80941200, -30.40046692, -73.57497406, 77.74960327, 15.39791393, -16.62915230, 0.75123352, -0.63050771, -0.01325975, 0.19476257, -0.00525007, -0.01170570, -0.01315084, 0.00000000, 0.00000000, 0.00000000, 0.00000000
1, 0.0825, 18, 0.27332637, -0.93083799, -0.18898489, -6.05932665, 1.49281859, -0.52541572, 11.80941200, -30.40046692, -73.57497406, 77.73538971, 15.39999008, -16.62566185, 0.75131422, -0.63041455, -0.01331718, 0.19474889, -0.00777051, -0.01125383, -0.01581542, 0.00000000, 0.00000000, 0.00000000, 0.00000000
1, 0.0850, 19, 0.27515402, -0.93147355, -0.18692100, -5.41012955, 1.28565645, -0.18064629, 11.80941200, -30.40046692, -73.57497406, 77.72269440, 15.40111542, -16.62250137, 0.75138748, -0.63033128, -0.01336373, 0.19473261, -0.00957924, -0.01056784, -0.01808679, 0.00000000, 0.00000000, 0.00000000, 0.00000000
1, 0.0875, 20, 0.27479383, -0.93209505, -0.18656318, -4.75883913, 0.80374104, 0.02051042, 11.54633141, -31.24817276, -73.57497406, 77.71133423, 15.40149117, -16.62045670, 0.75145274, -0.63025665, -0.01339684, 0.19471984, -0.00921270, -0.00990391, -0.01863101, 0.00000000, 0.00000000, 0.00000000, 0.00000000
1, 0.0900, 21, 0.27491716, -0.93149722, -0.18533231, -4.10964251, 0.59657884, 0.36527976, 11.54633141, -31.24817276, -73.57497406, 77.70153046, 15.40091705, -16.61874008, 0.75151062, -0.63019198, -0.01341905, 0.19470444, -0.00934568, -0.01046926, -0.02002369, 0.00000000, 0.00000000, 0.00000000, 0.00000000
1, 0.0925, 22, 0.27551976, -0.92966294, -0.18445009, -3.53196335, 0.32170466, 0.56948459, 11.54633141, -31.24817276, -73.57497406, 77.69300079, 15.39969826, -16.61761284, 0.75156152, -0.63013560, -0.01343150, 0.19468965, -0.00996882, -0.01227844, -0.02104745, 0.00000000, 0.00000000, 0.00000000, 0.00000000
1, 0.0950, 23, 0.27479029, -0.92929417, -0.18468735, -2.95360088, -0.02350556, 0.84267348, 11.54633141, -31.24817276, -73.57497406, 77.68571472, 15.39762688, -16.61720467, 0.75160569, -0.63008726, -0.01343208, 0.19467528, -0.00927418, -0.01263052, -0.02093190, 0.00000000, 0.00000000, 0.00000000, 0.00000000
1, 0.0975, 24, 0.27441493, -0.92573488, -0.18438770, -2.37419152, -0.50609237, 1.04405582, 11.54633141, -31.24817276, -73.57497406, 77.67959595, 15.39480782, -16.61790848, 0.75164288, -0.63004649, -0.01341951, 0.19466442, -0.00894630, -0.01618046, -0.02133498, 0.00000000, 0.00000000, 0.00000000, 0.00000000
1, 0.1000, 25, 0.27439478, -0.92432034, -0.18876509, -2.08277917, -0.92322606, 1.31720746, 11.54633141, -31.24817276, -73.57497406, 77.67395782, 15.39109516, -16.61952400, 0.75167751, -0.63000882, -0.01339511, 0.19465493, -0.00898859, -0.01759148, -0.01705394, 0.00000000, 0.00000000, 0.00000000, 0.00000000
1, 0.1025, 26, 0.27427325, -0.92625803, -0.19087186, -1.93649638, -1.20103037, 1.45284235, 11.95556831, -31.48202324, -73.66267395, 77.66850281, 15.38690567, -16.62176132, 0.75171071, -0.62997234, -0.01336367, 0.19464704, -0.00893754, -0.01565337, -0.01504082, 0.00000000, 0.00000000, 0.00000000, 0.00000000
1, 0.1050, 27, 0.27732325, -0.93322891, -0.19245119, -1.35766387, -1.61437964, 1.65516579, 11.95556831, -31.48202324, -73.66267395, 77.66426849, 15.38200092, -16.62493324, 0.75173676, -0.62994361, -0.01332021, 0.19464166, -0.01207012, -0.00868928, -0.01353607, 0.00000000, 0.00000000, 0.00000000, 0.00000000
1, 0.1075, 28, 0.27406737, -0.94033998, -0.19487517, -0.13341397, -1.81617022, 1.99812841, 11.95556831, -31.48202324, -73.66267395, 77.66301727, 15.37614918, -16.62842751, 0.75174773, -0.62993437, -0.01326353, 0.19463384, -0.00891265, -0.00160026, -0.01113848, 0.00000000, 0.00000000, 0.00000000, 0.00000000
1, 0.1100, 29, 0.27056563, -0.94634765, -0.19715951, 1.45114028, -2.08713675, 2.54879546, 11.95556831, -31.48202324, -73.66267395, 77.66561127, 15.36881161, -16.63230324, 0.75173920, -0.62994999, -0.01318811, 0.19462115, -0.00553444, 0.00436497, -0.00881873, 0.00000000, 0.00000000, 0.00000000, 0.00000000
1, 0.1125, 30, 0.26634222, -0.95371425, -0.19921879, 3.24845624, -2.00990105, 3.10348916, 11.95556831, -31.48202324, -73.66267395, 77.67283630, 15.36015606, -16.63567543, 0.75170833, -0.62999564, -0.01309870, 0.19459881, -0.00145665, 0.01166642, -0.00664912, 0.00000000, 0.00000000, 0.00000000, 0.00000000
1, 0.1150, 31, 0.25944069, -0.95668590, -0.19998334, 4.76123619, -2.28263736, 3.72430682, 11.69248772, -30.60508537, -73.42881775, 77.68375397, 15.34984493, -16.63939667, 0.75165921, -0.63006502, -0.01298986, 0.19457044, 0.00527126, 0.01455242, -0.00571528, 0.00000000, 0.00000000, 0.00000000, 0.00000000
1, 0.1175, 32, 0.25385922, -0.95777988, -0.20267700, 6.34756374, -2.82506156, 3.92158675, 11.69248772, -30.60508537, -73.42881775, 77.69831085, 15.33876228, -16.64438438, 0.75158948, -0.63015831, -0.01286269, 0.19454679, 0.01066622, 0.01554406, -0.00279321, 0.00000000, 0.00000000, 0.00000000, 0.00000000
1, 0.1200, 33, 0.25118953, -0.95911300, -0.20489150, 7.57196426, -3.09169555, 3.98390913, 11.69248772, -30.60508537, -73.42881775, 77.71575165, 15.32738209, -16.65001488, 0.75150311, -0.63027042, -0.01272508, 0.19452606, 0.01314438, 0.01676333, -0.00030309, 0.00000000, 0.00000000, 0.00000000, 0.00000000
1, 0.1225, 34, 0.24887529, -0.95883620, -0.20781526, 8.36575699, -3.43269444, 4.11657095, 11.69248772, -30.60508537, -73.42881775, 77.73496246, 15.31550217, -16.65644073, 0.75140649, -0.63039416, -0.01257669, 0.19450809, 0.01525864, 0.01636434, 0.00292513, 0.00000000, 0.00000000, 0.00000000, 0.00000000
1, 0.1250, 35, 0.24873745, -0.95973843, -0.21357206, 9.01305580, -3.49369168, 3.97374773, 11.69248772, -30.60508537, -73.42881775, 77.75573730, 15.30394268, -16.66310692, 0.75130033, -0.63052815, -0.01242652, 0.19449347, 0.01520187, 0.01714015, 0.00901234, 0.00000000, 0.00000000, 0.00000000, 0.00000000
1, 0.1275, 36, 0.24498282, -0.96194923, -0.21494240, 9.37052155, -3.28042483, 3.83559108, 11.69248772, -30.28354263, -73.28266144, 77.77752686, 15.29283333, -16.66930771, 0.75118858, -0.63066882, -0.01228023, 0.19447827, 0.01876949, 0.01922327, 0.01073030, 0.00000000, 0.00000000, 0.00000000, 0.00000000
1, 0.1300, 37, 0.24557944, -0.96057528, -0.21626677, 9.51375294, -3.27358913, 3.48551512, 11.69248772, -30.28354263, -73.28266144, 77.79474640, 15.26985264, -16.67637253, 0.75112045, -0.63077658, -0.01205666, 0.19440593, 0.01778599, 0.01768470, 0.01231565, 0.00000000, 0.00000000, 0.00000000, 0.00000000
1, 0.1325, 38, 0.24557944, -0.96057528, -0.21626677, 9.51375294, -3.27358913, 3.48551512, 11.69248772, -30.28354263, -73.28266144, 77.81685638, 15.25960922, -16.68275642, 0.75100511, -0.63091952, -0.01191470, 0.19439636, 0.01761349, 0.01756006, 0.01266955, 0.00000000, 0.00000000, 0.00000000, 0.00000000
1, 0.1350, 39, 0.24642947, -0.96493882, -0.22036780, 9.57739067, -2.36513972, 3.00804496, 11.69248772, -30.28354263, -73.28266144, 77.83965302, 15.25101185, -16.68710136, 0.75088662, -0.63106722, -0.01179393, 0.19438212, 0.01661870, 0.02180398, 0.01713761, 0.00000000, 0.00000000, 0.00000000, 0.00000000
1, 0.1375, 40, 0.24642947, -0.96493882, -0.22036780, 9.57739067, -2.36513972, 3.00804496, 11.69248772, -30.28354263, -73.28266144, 77.86246490, 15.24241734, -16.69145393, 0.75076813, -0.63121486, -0.01167315, 0.19436787, 0.01647398, 0.02168459, 0.01750465, 0.00000000, 0.00000000, 0.00000000, 0.00000000
1, 0.1400, 41, 0.24933892, -0.96153408, -0.21677792, 8.70620441, -1.39837861, 2.67430162, 11.83864307, -30.31277466, -72.87342834, 77.88367462, 15.23514557, -16.69354057, 0.75065994, -0.63135219, -0.01157650, 0.19434555, 0.01344207, 0.01817227, 0.01425705, 0.00000000, 0.00000000, 0.00000000, 0.00000000
1, 0.1425, 42, 0.25068116, -0.95926207, -0.21185799, 8.05307770, -0.70765203, 2.40604258, 11.83864307, -30.31277466, -72.87342834, 77.90367889, 15.22889233, -16.69402695, 0.75055939, -0.63148171, -0.01149762, 0.19431792, 0.01199448, 0.01580167, 0.00966059, 0.00000000, 0.00000000, 0.00000000, 0.00000000
1, 0.1450, 43, 0.25080302, -0.95526630, -0.20752016, 7.04195213, -0.22469991, 1.92631531, 11.83864307, -30.31277466, -72.87342834, 77.92141724, 15.22406483, -16.69354820, 0.75047046, -0.63159651, -0.01143755, 0.19429120, 0.01179138, 0.01172167, 0.00561009, 0.00000000, 0.00000000, 0.00000000, 0.00000000
1, 0.1475, 44, 0.25201997, -0.94813222, -0.19873741, 5.67189026, 0.18675601, 1.37685215, 11.83864307, -30.31277466, -72.87342834, 77.93591309, 15.22079468, -16.69232941, 0.75039822, -0.63169056, -0.01139760, 0.19426753, 0.01051936, 0.00452191, -0.00293696, 0.00000000, 0.00000000, 0.00000000, 0.00000000
1, 0.1500, 45, 0.24959181, -0.94037455, -0.19177061, 3.72688127, 0.59174168, 0.89912063, 11.83864307, -30.31277466, -72.87342834, 77.94575500, 15.21890831, -16.69033813, 0.75035042, -0.63175428, -0.01137910, 0.19424555, 0.01291572, -0.00327891, -0.00974351, 0.00000000, 0.00000000, 0.00000000, 0.00000000
1, 0.1525, 46, 0.25176069, -0.93595010, -0.19097415, 1.20476961, 1.20236421, 0.21624346, 11.60479355, -29.99123001, -73.63343811, 77.94960022, 15.21900558, -16.68717766, 0.75033438, -0.63177913, -0.01139069, 0.19422573, 0.01074848, -0.00771636, -0.01047653, 0.00000000, 0.00000000, 0.00000000, 0.00000000
1, 0.1550, 47, 0.25622934, -0.93331856, -0.19302037, -1.60130167, 1.39377654, -0.40144995, 11.60479355, -29.99123001, -73.63343811, 77.94646454, 15.22071648, -16.68386650, 0.75035447, -0.63175875, -0.01142583, 0.19421272, 0.00630865, -0.01032925, -0.00848037, 0.00000000, 0.00000000, 0.00000000, 0.00000000
1, 0.1575, 48, 0.26107371, -0.93267268, -0.19363138, -4.11974001, 1.58677661, -0.95012176, 11.60479355, -29.99123001, -73.63343811, 77.93709564, 15.22386646, -16.68035698, 0.75040680, -0.63169783, -0.01148235, 0.19420537, 0.00151736, -0.01092803, -0.00802067, 0.00000000, 0.00000000, 0.00000000, 0.00000000
1, 0.1600, 49, 0.26641071, -0.93350995, -0.19353294, -6.06521893, 2.05990100, -1.35698807, 11.60479355, -29.99123001, -73.63343811, 77.92310333, 15.22826385, -16.67587662, 0.75048411, -0.63160688, -0.01156048, 0.19419768, -0.00374562, -0.01002187, -0.00834534, 0.00000000, 0.00000000, 0.00000000, 0.00000000
1, 0.1625, 50, 0.26702183, -0.93195271, -0.19045541, -7.36286736, 2.46653581, -1.55705261, 11.60479355, -29.99123001, -73.63343811, 77.90610504, 15.23336124, -16.67047310, 0.75057834, -0.63149631, -0.01165351, 0.19418733, -0.00427091, -0.01149631, -0.01169782, 0.00000000, 0.00000000, 0.00000000, 0.00000000
1, 0.1650, 51, 0.26750493, -0.93024707, -0.18920833, -8.15414143, 2.52838755, -1.55362761, 11.69248772, -29.87430573, -73.63343811, 77.88718414, 15.23848152, -16.66490936, 0.75068349, -0.63137311, -0.01175086, 0.19417585, -0.00466776, -0.01311219, -0.01325154, 0.00000000, 0.00000000, 0.00000000, 0.00000000
1, 0.1675, 52, 0.26703203, -0.93041909, -0.18591066, -8.30078888, 2.87323236, -1.54847217, 11.69248772, -29.87430573, -73.63343811, 77.86811829, 15.24377537, -16.65847397, 0.75079054, -0.63124889, -0.01185441, 0.19415951, -0.00410572, -0.01284904, -0.01685800, 0.00000000, 0.00000000, 0.00000000, 0.00000000
1, 0.1700, 53, 0.26533961, -0.92923445, -0.18332289, -8.37209320, 2.80332351, -1.54918706, 11.69248772, -29.87430573, -73.63343811, 77.84883118, 15.24903584, -16.65221786, 0.75089854, -0.63112319, -0.01195713, 0.19414411, -0.00232473, -0.01394171, -0.01975824, 0.00000000, 0.00000000, 0.00000000, 0.00000000
1, 0.1725, 54, 0.26582754, -0.93009251, -0.18333703, -8.58496189, 2.45621943, -1.62313819, 11.69248772, -29.87430573, -73.63343811, 77.82877350, 15.25429726, -16.64688110, 0.75100923, -0.63099253, -0.01205608, 0.19413465, -0.00272405, -0.01298893, -0.02006916, 0.00000000, 0.00000000, 0.00000000, 0.00000000
1, 0.1750, 55, 0.26557875, -0.93127930, -0.18640964, -9.08593178, 2.17566776, -1.69524515, 11.69248772, -29.87430573, -73.63343811, 77.80726624, 15.25958920, -16.64229965, 0.75112653, -0.63085246, -0.01215354, 0.19413009, -0.00238615, -0.01170200, -0.01734538, 0.00000000, 0.00000000, 0.00000000, 0.00000000
1, 0.1775, 56, 0.26847380, -0.92999673, -0.18920648, -9.87442970, 1.89243031, -1.76644850, 12.07249355, -30.31277466, -73.51651764, 77.78358459, 15.26490593, -16.63847542, 0.75125444, -0.63069814, -0.01225069, 0.19413038, -0.00519168, -0.01287639, -0.01493311, 0.00000000, 0.00000000, 0.00000000, 0.00000000
1, 0.1800, 57, 0.27050093, -0.92561060, -0.19439796, -10.52068043, 1.81605101, -1.69543195, 12.07249355, -30.31277466, -73.51651764, 77.76261902, 15.27797222, -16.63400650, 0.75135547, -0.63056350, -0.01239924, 0.19416733, -0.00699881, -0.01712900, -0.01007393, 0.00000000, 0.00000000, 0.00000000, 0.00000000
1, 0.1825, 58, 0.27131346, -0.92327958, -0.20242898, -10.95081711, 1.67354715, -1.69595838, 12.07249355, -30.31277466, -73.51651764, 77.73610687, 15.28300476, -16.63070107, 0.75149840, -0.63039058, -0.01249639, 0.19416915, -0.00772661, -0.01934261, -0.00247413, 0.00000000, 0.00000000, 0.00000000, 0.00000000
1, 0.1850, 59, 0.27253443, -0.92851907, -0.20532222, -10.44952679, 1.95080340, -1.41407681, 12.07249355, -30.31277466, -73.51651764, 77.71109009, 15.28749657, -16.62653923, 0.75163561, -0.63022721, -0.01259208, 0.19416265, -0.00887197, -0.01399339, 0.00001194, 0.00000000, 0.00000000, 0.00000000, 0.00000000
1, 0.1875, 60, 0.27196166, -0.93628961, -0.20372926, -9.80263615, 2.02059126, -1.06554449, 12.07249355, -30.31277466, -73.51651764, 77.68778229, 15.29117489, -16.62201118, 0.75176531, -0.63007474, -0.01268139, 0.19414964, -0.00823727, -0.00612265, -0.00196090, 0.00000000, 0.00000000, 0.00000000, 0.00000000
1, 0.1900, 61, 0.26785183, -0.93708277, -0.20116682, -8.79576015, 2.02449894, -0.71908194, 11.69248772, -30.48816109, -72.81496429, 77.66704559, 15.29401302, -16.61728287, 0.75188261, -0.62993890, -0.01276174, 0.19413118, -0.00407967, -0.00524235, -0.00486158, 0.00000000, 0.00000000, 0.00000000, 0.00000000
1, 0.1925, 62, 0.26410145, -0.93834150, -0.20032303, -8.07641220, 2.02572107, -0.37171629, 11.69248772, -30.48816109, -72.81496429, 77.64814758, 15.29600239, -16.61235809, 0.75199139, -0.62981480, -0.01283428, 0.19410716, -0.00029579, -0.00390667, -0.00601424, 0.00000000, 0.00000000, 0.00000000, 0.00000000
1, 0.1950, 63, 0.26145720, -0.94462407, -0.20029160, -7.57108498, 1.81831479, -0.09642005, 11.69248772, -30.48816109, -72.81496429, 77.63042450, 15.29721069, -16.60780907, 0.75209445, -0.62969828, -0.01289749, 0.19408163, 0.00236881, 0.00244522, -0.00633585, 0.00000000, 0.00000000, 0.00000000, 0.00000000
1, 0.1975, 64, 0.26050353, -0.94929743, -0.20048338, -7.06355762, 1.33505642, 0.10518833, 11.69248772, -30.48816109, -72.81496429, 77.61367035, 15.29767036, -16.60436821, 0.75219154, -0.62958807, -0.01294786, 0.19405958, 0.00333020, 0.00718111, -0.00641909, 0.00000000, 0.00000000, 0.00000000, 0.00000000
1, 0.2000, 65, 0.26004064, -0.95326585, -0.19822145, -6.55880690, 1.19688749, 0.38142529, 11.69248772, -30.48816109, -72.81496429, 77.59813690, 15.29738331, -16.60112762, 0.75228286, -0.62948561, -0.01299003, 0.19403502, 0.00378823, 0.01120442, -0.00893681, 0.00000000, 0.00000000, 0.00000000, 0.00000000
1, 0.2025, 66, 0.25919518, -0.95449376, -0.19860509, -5.55020237, 0.99308246, 0.72506553, 11.54633141, -30.69277954, -73.75036621, 77.58503723, 15.29614544, -16.59821129, 0.75236195, -0.62939900, -0.01301987, 0.19400795, 0.00461292, 0.01247406, -0.00876981, 0.00000000, 0.00000000, 0.00000000, 0.00000000
1, 0.2050, 67, 0.25799289, -0.95623571, -0.19752952, -4.82807589, 0.64921516, 0.99780262, 11.54633141, -30.69277954, -73.75036621, 77.57353973, 15.29406071, -16.59601212, 0.75243217, -0.62932271, -0.01303726, 0.19398126, 0.00578004, 0.01424837, -0.01003643, 0.00000000, 0.00000000, 0.00000000, 0.00000000
1, 0.2075, 68, 0.25484908, -0.95858401, -0.19768123, -3.60068583, 0.03529482, 1.12534630, 11.54633141, -30.69277954, -73.75036621, 77.56472778, 15.29133034, -16.59529495, 0.75248647, -0.62926412, -0.01303763, 0.19396131, 0.00887796, 0.01661623, -0.01003222, 0.00000000, 0.00000000, 0.00000000, 0.00000000
1, 0.2100, 69, 0.25267032, -0.96163559, -0.19992304, -2.59344673, -0.02783792, 1.33101809, 11.54633141, -30.69277954, -73.75036621, 77.55842590, 15.28806686, -16.59462357, 0.75252765, -0.62922180, -0.01302987, 0.19393910, 0.01100177, 0.01967609, -0.00789735, 0.00000000, 0.00000000, 0.00000000, 0.00000000
1, 0.2125, 70, 0.25364238, -0.96527505, -0.20303570, -1.94572306, -0.09322943, 1.46789432, 11.54633141, -30.69277954, -73.75036621, 77.55371857, 15.28443336, -16.59404182, 0.75256056, -0.62918985, -0.01301642, 0.19391572, 0.00996852, 0.02331626, -0.00486569, 0.00000000, 0.00000000, 0.00000000, 0.00000000
1, 0.2150, 71, 0.25351784, -0.96695811, -0.20574956, -1.58652818, -0.08767512, 1.32691550, 11.28325081, -29.81584358, -74.27652740, 77.54988861, 15.28114796, -16.59351921, 0.75258791, -0.62916380, -0.01300348, 0.19389468, 0.01003775, 0.02499843, -0.00221802, 0.00000000, 0.00000000, 0.00000000, 0.00000000
1, 0.2175, 72, 0.25497550, -0.96865994, -0.20663397, -1.44229484, -0.15447123, 1.25559819, 11.28325081, -29.81584358, -74.27652740, 77.54637146, 15.27799797, -16.59320831, 0.75261307, -0.62913984, -0.01298981, 0.19387577, 0.00852704, 0.02669907, -0.00139461, 0.00000000, 0.00000000, 0.00000000, 0.00000000
1, 0.2200, 73, 0.25388846, -0.96952885, -0.20640065, -1.44287145, -0.08523368, 1.25653899, 11.28325081, -29.81584358, -74.27652740, 77.54289246, 15.27488804, -16.59272194, 0.75263828, -0.62911624, -0.01297727, 0.19385593, 0.00956172, 0.02756650, -0.00168817, 0.00000000, 0.00000000, 0.00000000, 0.00000000
1, 0.2225, 74, 0.25451377, -0.96996766, -0.20127635, -1.51705968, 0.19104511, 1.26052773, 11.28325081, -29.81584358, -74.27652740, 77.53941345, 15.27191353, -16.59153366, 0.75266433, -0.62909251, -0.01296952, 0.19383217, 0.00888634, 0.02800465, -0.00687255, 0.00000000, 0.00000000, 0.00000000, 0.00000000
1, 0.2250, 75, 0.25366509, -0.96670002, -0.19792527, -1.23262978, 0.54211575, 1.12447858, 11.28325081, -29.81584358, -74.27652740, 77.53684998, 15.26945972, -16.58953476, 0.75268584, -0.62907481, -0.01296820, 0.19380592, 0.00969371, 0.02473527, -0.01026818, 0.00000000, 0.00000000, 0.00000000, 0.00000000
1, 0.2275, 76, 0.25391820, -0.96649992, -0.19462338, -0.80281317, 0.68791515, 0.91523045, 11.78018093, -29.17275620, -74.21806335, 77.53543854, 15.26759911, -16.58728218, 0.75270057, -0.62906480, -0.01297033, 0.19378123, 0.00940925, 0.02453190, -0.01359516, 0.00000000, 0.00000000, 0.00000000, 0.00000000
1, 0.2300, 77, 0.25391820, -0.96649992, -0.19462338, -0.80281317, 0.68791515, 0.91523045, 11.78018093, -29.17275620, -74.21806335, 77.59961700, 15.21607208, -16.56388474, 0.75247389, -0.62947053, -0.01264125, 0.19336519, 0.00854158, 0.02406842, -0.01259071, 0.00000000, 0.00000000, 0.00000000, 0.00000000
1, 0.2325, 78, 0.25453672, -0.96727449, -0.19182597, 1.20886898, 0.78034747, 0.63014799, 11.78018093, -29.17275620, -74.21806335, 77.60324860, 15.21495533, -16.56155586, 0.75245970, -0.62949383, -0.01264031, 0.19334446, 0.00790426, 0.02482474, -0.01532947, 0.00000000, 0.00000000, 0.00000000, 0.00000000
1, 0.2350, 79, 0.25453672, -0.96727449, -0.19182597, 1.20886898, 0.78034747, 0.63014799, 11.78018093, -29.17275620, -74.21806335, 77.60688019, 15.21383286, -16.55923653, 0.75244564, -0.62951720, -0.01263937, 0.19332376, 0.00788537, 0.02480680, -0.01527086, 0.00000000, 0.00000000, 0.00000000, 0.00000000
1, 0.2375, 80, 0.25768101, -0.96601856, -0.19266856, 2.07332873, 0.51584888, 0.34397548, 11.78018093, -29.17275620, -74.21806335, 77.61246490, 15.21327114, -16.55773544, 0.75241834, -0.62955350, -0.01263437, 0.19331157, 0.00473160, 0.02352810, -0.01433697, 0.00000000, 0.00000000, 0.00000000, 0.00000000
1, 0.2400, 81, 0.26142612, -0.96146727, -0.19162898, 2.21709204, 0.51719177, 0.34352380, 11.78018093, -29.17275620, -74.21806335, 77.61840820, 15.21271133, -16.55623245, 0.75238919, -0.62959224, -0.01262879, 0.19329944, 0.00097707, 0.01895273, -0.01527934, 0.00000000, 0.00000000, 0.00000000, 0.00000000
1, 0.2425, 82, 0.26540077, -0.95504516, -0.19239418, 2.50728869, 0.17588682, 0.19806699, 11.92633724, -29.69891739, -74.01344299, 77.62481689, 15.21232033, -16.55568123, 0.75235552, -0.62963414, -0.01261838, 0.19329447, -0.00300416, 0.01250583, -0.01440902, 0.00000000, 0.00000000, 0.00000000, 0.00000000
1, 0.2450, 83, 0.26792759, -0.94841522, -0.19095369, 2.64932203, 0.38494235, 0.20043755, 11.92633724, -29.69891739, -74.01344299, 77.63172913, 15.21203995, -16.55459785, 0.75231993, -0.62967938, -0.01261078, 0.19328664, -0.00553572, 0.00584966, -0.01573612, 0.00000000, 0.00000000, 0.00000000, 0.00000000
1, 0.2475, 84, 0.27093849, -0.94177961, -0.18975849, 2.93637824, 0.45576724, 0.27039972, 11.92633724, -29.69891739, -74.01344299, 77.63941193, 15.21162415, -16.55329132, 0.75228059, -0.62972957, -0.01260216, 0.19327675, -0.00855363, -0.00081551, -0.01680531, 0.00000000, 0.00000000, 0.00000000, 0.00000000
1, 0.2525, 85, 0.27541286, -0.93432540, -0.18513224, 3.95006704, -0.37007719, 0.53564835, 11.92633724, -29.69891739, -74.01344299, 77.65766907, 15.20936108, -16.55346107, 0.75218374, -0.62984890, -0.01255511, 0.19326802, -0.01306608, -0.00834566, -0.02113327, 0.00000000, 0.00000000, 0.00000000, 0.00000000
1, 0.2550, 86, 0.27660984, -0.92904860, -0.18407632, 4.38214588, -0.43748307, 0.67320222, 12.04326248, -29.20198822, -73.69190216, 77.66842651, 15.20748329, -16.55419540, 0.75212651, -0.62991911, -0.01252020, 0.19326419, -0.01429472, -0.01366961, -0.02201413, 0.00000000, 0.00000000, 0.00000000, 0.00000000
1, 0.2575, 87, 0.27757177, -0.92707402, -0.18429245, 4.60031080, -0.71461594, 0.80861139, 12.04326248, -29.20198822, -73.69190216, 77.67957306, 15.20512676, -16.55555916, 0.75206685, -0.62999177, -0.01247797, 0.19326200, -0.01529634, -0.01569468, -0.02161698, 0.00000000, 0.00000000, 0.00000000, 0.00000000
1, 0.2600, 88, 0.27744707, -0.92621237, -0.18440121, 4.53199577, -1.13181126, 0.87311763, 12.04326248, -29.20198822, -73.69190216, 77.69027710, 15.20238972, -16.55793953, 0.75200856, -0.63006163, -0.01242829, 0.19326445, -0.01521775, -0.01660699, -0.02133467, 0.00000000, 0.00000000, 0.00000000, 0.00000000
1, 0.2625, 89, 0.27646136, -0.92324454, -0.18594232, 4.46342325, -1.48306453, 1.14833903, 12.04326248, -29.20198822, -73.69190216, 77.70062256, 15.19879627, -16.56106186, 0.75195247, -0.63012892, -0.01236935, 0.19326721, -0.01429257, -0.01962817, -0.01962683, 0.00000000, 0.00000000, 0.00000000, 0.00000000
1, 0.2650, 90, 0.27584592, -0.92320919, -0.18862887, 3.96219587, -1.69767451, 1.28694737, 12.04326248, -29.20198822, -73.69190216, 77.70958710, 15.19474792, -16.56464577, 0.75190377, -0.63018709, -0.01230710, 0.19327047, -0.01374528, -0.01971370, -0.01679669, 0.00000000, 0.00000000, 0.00000000, 0.00000000
1, 0.2675, 91, 0.27608269, -0.92161024, -0.18860488, 3.31929755, -2.18838096, 1.28239477, 11.10786343, -30.95586014, -73.66267395, 77.71662903, 15.19044971, -16.56947708, 0.75186414, -0.63023269, -0.01223958, 0.19328041, -0.01405445, -0.02135700, -0.01670904, 0.00000000, 0.00000000, 0.00000000, 0.00000000
1, 0.2700, 92, 0.27305716, -0.92576331, -0.19147280, 2.96125603, -2.33241034, 1.42149210, 11.10786343, -30.95586014, -73.66267395, 77.72268677, 15.18573856, -16.57459641, 0.75183004, -0.63027179, -0.01216928, 0.19328995, -0.01110828, -0.01724679, -0.01374600, 0.00000000, 0.00000000, 0.00000000, 0.00000000
1, 0.2725, 93, 0.27137062, -0.93017513, -0.19300325, 2.74640083, -2.40585923, 1.56107867, 11.10786343, -30.95586014, -73.66267395, 77.72818756, 15.18064690, -16.57982635, 0.75179946, -0.63030714, -0.01209678, 0.19329816, -0.00950751, -0.01287740, -0.01212992, 0.00000000, 0.00000000, 0.00000000, 0.00000000
1, 0.2750, 94, 0.26908228, -0.93533415, -0.19405513, 2.45725107, -2.20193100, 1.63472915, 11.10786343, -30.95586014, -73.66267395, 77.73310852, 15.17548180, -16.58450127, 0.75177318, -0.63033855, -0.01202782, 0.19330227, -0.00730616, -0.00775909, -0.01100220, 0.00000000, 0.00000000, 0.00000000, 0.00000000
1, 0.2775, 95, 0.26448959, -0.94158936, -0.19658543, 2.45908761, -2.41074204, 1.70183170, 11.10786343, -30.95586014, -73.66267395, 77.73789215, 15.17004490, -16.58966637, 0.75174719, -0.63036913, -0.01195450, 0.19330816, -0.00280505, -0.00154531, -0.00839834, 0.00000000, 0.00000000, 0.00000000, 0.00000000
1, 0.2800, 96, 0.26123151, -0.94614702, -0.19701512, 2.31658435, -2.55165863, 1.77032650, 11.34171295, -30.19584846, -73.77959442, 77.75403595, 15.16345501, -16.59183693, 0.75166571, -0.63047361, -0.01187073, 0.19328953, 0.00034201, 0.00292534, -0.00770919, 0.00000000, 0.00000000, 0.00000000, 0.00000000
1, 0.2825, 97, 0.25797510, -0.95071167, -0.19695614, 2.10083294, -2.55257463, 1.70107949, 11.34171295, -30.19584846, -73.77959442, 77.75784302, 15.15794849, -16.59736633, 0.75164461, -0.63049769, -0.01179662, 0.19329730, 0.00350562, 0.00745183, -0.00771088, 0.00000000, 0.00000000, 0.00000000, 0.00000000
1, 0.2850, 98, 0.25737596, -0.95219642, -0.19648886, 2.02999830, -2.69062257, 1.62949896, 11.34171295, -30.19584846, -73.77959442, 77.76137543, 15.15253925, -16.60328102, 0.75162429, -0.63052005, -0.01172152, 0.19330812, 0.00401369, 0.00889981, -0.00812533, 0.00000000, 0.00000000, 0.00000000, 0.00000000
1, 0.2875, 99, 0.25592789, -0.95501626, -0.19750662, 2.02942157, -2.62138510, 1.63043976, 11.34171295, -30.19584846, -73.77959442, 77.76494598, 15.14716721, -16.60902023, 0.75160390, -0.63054270, -0.01164755, 0.19331795, 0.00537124, 0.01168293, -0.00705390, 0.00000000, 0.00000000, 0.00000000, 0.00000000
1, 0.2900, 100, 0.25435129, -0.95683771, -0.19960864, 1.88429153, -2.48205566, 1.49292314, 11.34171295, -30.19584846, -73.77959442, 77.76821899, 15.14220333, -16.61448479, 0.75158495, -0.63056344, -0.01157836, 0.19332810, 0.00686422, 0.01347059, -0.00490277, 0.00000000, 0.00000000, 0.00000000, 0.00000000
1, 0.2925, 101, 0.25557470, -0.95905834, -0.19866756, 1.52398741, -2.41287971, 1.28521860, 11.19555664, -30.25431061, -73.63343811, 77.77061462, 15.13778591, -16.61989212, 0.75157011, -0.63057858, -0.01151469, 0.19334063, 0.00556639, 0.01566297, -0.00580868, 0.00000000, 0.00000000, 0.00000000, 0.00000000
1, 0.2950, 102, 0.25543848, -0.95790756, -0.20182680, 1.16378975, -2.34480262, 1.14743888, 11.19555664, -30.25431061, -73.63343811, 77.77214050, 15.13374043, -16.62519646, 0.75155950, -0.63058805, -0.01145555, 0.19335437, 0.00563446, 0.01448876, -0.00262825, 0.00000000, 0.00000000, 0.00000000, 0.00000000
1, 0.2975, 103, 0.25518665, -0.95811278, -0.20476218, 0.73055696, -2.13892150, 1.01176643, 11.19555664, -30.25431061, -73.63343811, 77.77269745, 15.13013744, -16.63005447, 0.75155425, -0.63059127, -0.01140348, 0.19336739, 0.00582558, 0.01467592, 0.00031285, 0.00000000, 0.00000000, 0.00000000, 0.00000000
1, 0.3000, 104, 0.25639153, -0.95710826, -0.20584904, 0.22418283, -1.79413807, 0.80827677, 11.19555664, -30.25431061, -73.63343811, 77.77219391, 15.12721252, -16.63415337, 0.75155497, -0.63058758, -0.01136199, 0.19337888, 0.00457141, 0.01366026, 0.00138859, 0.00000000, 0.00000000, 0.00000000, 0.00000000
1, 0.3025, 105, 0.25880668, -0.95318294, -0.20444973, -0.28323811, -1.31197822, 0.67659324, 11.19555664, -30.25431061, -73.63343811, 77.77072144, 15.12486649, -16.63710403, 0.75156200, -0.63057756, -0.01133237, 0.19338576, 0.00211674, 0.00972968, -0.00003730, 0.00000000, 0.00000000, 0.00000000, 0.00000000
1, 0.3050, 106, 0.26014596, -0.95186812, -0.20137739, -0.71841395, -0.89618766, 0.40389335, 11.51710033, -30.69277954, -72.90265656, 77.76838684, 15.12340355, -16.63914680, 0.75157386, -0.63056213, -0.01131515, 0.19339129, 0.00075281, 0.00841677, -0.00314939, 0.00000000, 0.00000000, 0.00000000, 0.00000000
1, 0.3075, 107, 0.26137006, -0.95130527, -0.19733877, -0.64836884, -0.68670493, 0.33656493, 11.51710033, -30.69277954, -72.90265656, 77.76635742, 15.12221622, -16.64070511, 0.75158441, -0.63054866, -0.01130199, 0.19339506, -0.00049129, 0.00785583, -0.00722261, 0.00000000, 0.00000000, 0.00000000, 0.00000000
1, 0.3100, 108, 0.26162195, -0.95194817, -0.19527178, -0.50607866, -0.54359138, 0.12822022, 11.51710033, -30.69277954, -72.90265656, 77.76475525, 15.12161541, -16.64200592, 0.75159204, -0.63053817, -0.01129345, 0.19340031, -0.00075334, 0.00850177, -0.00931649, 0.00000000, 0.00000000, 0.00000000, 0.00000000
1, 0.3125, 109, 0.26199585, -0.95259410, -0.19296068, -0.36357528, -0.40267488, 0.05972516, 11.51710033, -30.69277954, -72.90265656, 77.76358795, 15.12125683, -16.64299202, 0.75159740, -0.63053048, -0.01128756, 0.19340478, -0.00113326, 0.00915027, -0.01164729, 0.00000000, 0.00000000, 0.00000000, 0.00000000
1, 0.3150, 110, 0.26248279, -0.95138878, -0.19111025, -0.29248345, -0.33056879, -0.07940962, 11.51710033, -30.69277954, -72.90265656, 77.76263428, 15.12127590, -16.64387131, 0.75160104, -0.63052428, -0.01128446, 0.19341053, -0.00161988, 0.00794846, -0.01351333, 0.00000000, 0.00000000, 0.00000000, 0.00000000
1, 0.3175, 111, 0.26331884, -0.94927442, -0.19254598, -0.58069313, -0.26291856, -0.14749035, 11.78018093, -29.99123001, -72.81496429, 77.76097870, 15.12149429, -16.64462090, 0.75160861, -0.63051361, -0.01128463, 0.19341645, -0.00245225, 0.00584102, -0.01210462, 0.00000000, 0.00000000, 0.00000000, 0.00000000
1, 0.3200, 112, 0.26839399, -0.94615716, -0.19397502, -1.23036039, 0.01238270, -0.42139414, 11.78018093, -29.99123001, -72.81496429, 77.75785828, 15.12253284, -16.64481735, 0.75162375, -0.63049340, -0.01129583, 0.19342288, -0.00750992, 0.00273937, -0.01072605, 0.00000000, 0.00000000, 0.00000000, 0.00000000
1, 0.3225, 113, 0.27442539, -0.93874043, -0.19485141, -1.66039014, -0.13121966, -0.35199571, 11.78018093, -29.99123001, -72.81496429, 77.75357056, 15.12332344, -16.64534378, 0.75164503, -0.63046551, -0.01130552, 0.19343002, -0.01352799, -0.00465840, -0.00991950, 0.00000000, 0.00000000, 0.00000000, 0.00000000
1, 0.3250, 114, 0.27790922, -0.93278086, -0.19782224, -2.02048111, -0.06424087, -0.41985059, 11.78018093, -29.99123001, -72.81496429, 77.74841309, 15.12431526, -16.64574051, 0.75167114, -0.63043201, -0.01131877, 0.19343732, -0.01699510, -0.01059520, -0.00703257, 0.00000000, 0.00000000, 0.00000000, 0.00000000
1, 0.3275, 115, 0.27790922, -0.93278086, -0.19782224, -2.02048111, -0.06424087, -0.41985059, 11.78018093, -29.99123001, -72.81496429, 77.74325562, 15.12530708, -16.64613342, 0.75169712, -0.63039845, -0.01133202, 0.19344459, -0.01697839, -0.01057232, -0.00711660, 0.00000000, 0.00000000, 0.00000000, 0.00000000
1, 0.3300, 116, 0.28069052, -0.93564826, -0.20275973, -2.52542639, 0.20251660, -0.06488240, 11.16632557, -30.69277954, -73.37036133, 77.73899841, 15.19214439, -16.64901924, 0.75160390, -0.63038826, -0.01177572, 0.19381344, -0.01863376, -0.00739157, -0.00218432, 0.00000000, 0.00000000, 0.00000000, 0.00000000
1, 0.3325, 117, 0.28069052, -0.93564826, -0.20275973, -2.52542639, 0.20251660, -0.06488240, 11.16632557, -30.69277954, -73.37036133, 77.73281097, 15.19241047, -16.64854240, 0.75163829, -0.63034767, -0.01179061, 0.19381107, -0.01862925, -0.00736833, -0.00228591, 0.00000000, 0.00000000, 0.00000000, 0.00000000
1, 0.3350, 118, 0.27923086, -0.93720949, -0.20583557, -1.23038578, 0.20251909, 0.70022571, 11.16632557, -30.69277954, -73.37036133, 77.72997284, 15.19080544, -16.64764214, 0.75165814, -0.63032854, -0.01178951, 0.19379649, -0.01719663, -0.00580400, 0.00074162, 0.00000000, 0.00000000, 0.00000000, 0.00000000
1, 0.3375, 119, 0.27874127, -0.93719262, -0.20717849, -0.36774379, 0.27322295, 1.11800539, 11.16632557, -30.69277954, -73.37036133, 77.72939301, 15.18822002, -16.64633560, 0.75166786, -0.63032395, -0.01178017, 0.19377430, -0.01675061, -0.00583041, 0.00207250, 0.00000000, 0.00000000, 0.00000000, 0.00000000
1, 0.3400, 120, 0.27679536, -0.93572158, -0.20751856, 0.42547357, 0.00146170, 1.25160766, 11.16632557, -30.69277954, -73.37036133, 77.73062897, 15.18516541, -16.64564514, 0.75166732, -0.63033122, -0.01176118, 0.19375387, -0.01485613, -0.00731963, 0.00243001, 0.00000000, 0.00000000, 0.00000000, 0.00000000
1, 0.3425, 121, 0.27364153, -0.93463701, -0.20700671, 1.29067922, -0.27072668, 1.45490897, 11.75094986, -30.07892418, -73.77959442, 77.73389435, 15.18146801, -16.64553070, 0.75165576, -0.63035160, -0.01173128, 0.19373406, -0.01176459, -0.00843233, 0.00196822, 0.00000000, 0.00000000, 0.00000000, 0.00000000
1, 0.3450, 122, 0.27280301, -0.93819493, -0.20779265, 2.01201487, -0.54315937, 1.58873737, 11.75094986, -30.07892418, -73.77959442, 77.73879242, 15.17729378, -16.64603233, 0.75163496, -0.63038272, -0.01169202, 0.19371599, -0.01099637, -0.00491047, 0.00283076, 0.00000000, 0.00000000, 0.00000000, 0.00000000
1, 0.3475, 123, 0.27195880, -0.93906444, -0.20743763, 3.09160542, -0.67375970, 1.72331786, 11.75094986, -30.07892418, -73.77959442, 77.74632263, 15.17272758, -16.64678955, 0.75159991, -0.63043100, -0.01164420, 0.19369778, -0.01022908, -0.00408828, 0.00259525, 0.00000000, 0.00000000, 0.00000000, 0.00000000
1, 0.3500, 124, 0.26857296, -0.94105202, -0.20709454, 3.81362414, -1.01652837, 1.92613006, 11.75094986, -30.07892418, -73.77959442, 77.75545502, 15.16748333, -16.64830399, 0.75155586, -0.63048971, -0.01158493, 0.19368115, -0.00693158, -0.00215685, 0.00239740, 0.00000000, 0.00000000, 0.00000000, 0.00000000
1, 0.3525, 125, 0.26954710, -0.94397306, -0.20885202, 4.17392921, -1.08570421, 2.13383484, 11.75094986, -30.07892418, -73.77959442, 77.76548004, 15.16169357, -16.64987946, 0.75150776, -0.63055408, -0.01152014, 0.19366215, -0.00800327, 0.00070262, 0.00431427, 0.00000000, 0.00000000, 0.00000000, 0.00000000
1, 0.3550, 126, 0.26796919, -0.94518346, -0.21070027, 4.39083338, -1.22326338, 2.20120072, 11.48786926, -29.64045525, -73.80883026, 77.77595520, 15.15566540, -16.65176964, 0.75145698, -0.63062143, -0.01145125, 0.19364399, -0.00652689, 0.00184876, 0.00632921, 0.00000000, 0.00000000, 0.00000000, 0.00000000
1, 0.3575, 127, 0.26918998, -0.94654542, -0.20962386, 4.75301886, -1.56499553, 2.12544274, 11.48786926, -29.64045525, -73.80883026, 77.78710175, 15.14964676, -16.65456390, 0.75140101, -0.63069326, -0.01137627, 0.19363186, -0.00784910, 0.00314409, 0.00543057, 0.00000000, 0.00000000, 0.00000000, 0.00000000
1, 0.3600, 128, 0.26810083, -0.94825387, -0.21086976, 5.11253309, -1.56273675, 2.19423842, 11.48786926, -29.64045525, -73.80883026, 77.79915619, 15.14345455, -16.65732002, 0.75134039, -0.63077098, -0.01129886, 0.19361866, -0.00686425, 0.00478202, 0.00686902, 0.00000000, 0.00000000, 0.00000000, 0.00000000
1, 0.3625, 129, 0.26714629, -0.95292377, -0.21130589, 5.61743402, -1.76574934, 2.18983531, 11.48786926, -29.64045525, -73.80883026, 77.81234741, 15.13717079, -16.66059113, 0.75127262, -0.63085610, -0.01121605, 0.19360842, -0.00601557, 0.00937700, 0.00751629, 0.00000000, 0.00000000, 0.00000000, 0.00000000
1, 0.3650, 130, 0.26509658, -0.95891434, -0.21432614, 6.26426172, -1.75860775, 2.11787772, 11.48786926, -29.64045525, -73.80883026, 77.82715607, 15.13107014, -16.66388512, 0.75119579, -0.63095188, -0.01113162, 0.19359945, -0.00406864, 0.01528770, 0.01077450, 0.00000000, 0.00000000, 0.00000000, 0.00000000
1, 0.3675, 131, 0.26268488, -0.96370173, -0.21561645, 6.98145437, -1.54527903, 2.18836641, 11.19555664, -31.18971062, -73.31189728, 77.84390259, 15.12490749, -16.66660309, 0.75110930, -0.63106030, -0.01104668, 0.19358654, -0.00176078, 0.01998818, 0.01233469, 0.00000000, 0.00000000, 0.00000000, 0.00000000
1, 0.3700, 132, 0.26341388, -0.96370530, -0.21512923, 7.33913231, -1.33420897, 2.19005942, 11.19555664, -31.18971062, -73.31189728, 77.86167908, 15.11885262, -16.66878891, 0.75101781, -0.63117546, -0.01096367, 0.19357079, -0.00259179, 0.01990182, 0.01213450, 0.00000000, 0.00000000, 0.00000000, 0.00000000
1, 0.3725, 133, 0.26183546, -0.96273279, -0.21486670, 7.26436710, -0.98869264, 2.19498897, 11.19555664, -31.18971062, -73.31189728, 77.87950134, 15.11296844, -16.67009735, 0.75092733, -0.63129085, -0.01088657, 0.19355018, -0.00111252, 0.01883996, 0.01215989, 0.00000000, 0.00000000, 0.00000000, 0.00000000
1, 0.3750, 134, 0.26086742, -0.96262312, -0.21425205, 6.75626326, -0.43619689, 1.99432135, 11.19555664, -31.18971062, -73.31189728, 77.89637756, 15.10786247, -16.67011642, 0.75084281, -0.63140017, -0.01082343, 0.19352512, -0.00023049, 0.01864803, 0.01181852, 0.00000000, 0.00000000, 0.00000000, 0.00000000
1, 0.3775, 135, 0.26002440, -0.96119553, -0.21117355, 5.67415285, -0.02644929, 1.72365403, 11.19555664, -31.18971062, -73.31189728, 77.91078949, 15.10363674, -16.66925049, 0.75077194, -0.63149339, -0.01077529, 0.19349860, 0.00054130, 0.01715064, 0.00897347, 0.00000000, 0.00000000, 0.00000000, 0.00000000
1, 0.3800, 136, 0.26040000, -0.96087903, -0.20738134, 4.44874954, 0.31381634, 1.38257301, 11.19555664, -31.18971062, -73.31189728, 77.91984558, 15.09398365, -16.66802216, 0.75074023, -0.63155001, -0.01070153, 0.19344071, 0.00000304, 0.01675946, 0.00532110, 0.00000000, 0.00000000, 0.00000000, 0.00000000
1, 0.3825, 137, 0.26137832, -0.96187860, -0.20593227, 3.08073664, 0.51426405, 1.04006195, 11.10786343, -29.81584358, -73.04881287, 77.92802429, 15.09170914, -16.66615677, 0.75070208, -0.63160288, -0.01068262, 0.19341731, -0.00101358, 0.01771992, 0.00400476, 0.00000000, 0.00000000, 0.00000000, 0.00000000
1, 0.3850, 138, 0.26356825, -0.96056849, -0.20225078, 1.78308821, 0.92089880, 0.83999735, 11.10786343, -29.81584358, -73.04881287, 77.93321228, 15.09013844, -16.66336823, 0.75068080, -0.63163614, -0.01067860, 0.19339128, -0.00323001, 0.01638466, 0.00040719, 0.00000000, 0.00000000, 0.00000000, 0.00000000
1, 0.3875, 139, 0.26527300, -0.96095544, -0.20042723, 0.63014299, 1.19259846, 0.49774963, 11.10786343, -29.81584358, -73.04881287, 77.93563843, 15.08954620, -16.66008377, 0.75067389, -0.63165158, -0.01068861, 0.19336684, -0.00494474, 0.01676041, -0.00137687, 0.00000000, 0.00000000, 0.00000000, 0.00000000
1, 0.3900, 140, 0.26648545, -0.95828569, -0.19757830, -0.01988780, 1.53494012, 0.36463627, 11.10786343, -29.81584358, -73.04881287, 77.93666077, 15.08945560, -16.65599823, 0.75067538, -0.63165784, -0.01070881, 0.19333971, -0.00615871, 0.01408654, -0.00420918, 0.00000000, 0.00000000, 0.00000000, 0.00000000
1, 0.3925, 141, 0.26904249, -0.95698780, -0.19292016, -0.52410585, 1.66761661, 0.43802348, 11.10786343, -29.81584358, -73.04881287, 77.93650818, 15.08925724, -16.65153694, 0.75068402, -0.63165641, -0.01073229, 0.19330943, -0.00871909, 0.01278836, -0.00886987, 0.00000000, 0.00000000, 0.00000000, 0.00000000
1, 0.3950, 142, 0.27050379, -0.95470649, -0.18861133, -0.81336230, 1.87264347, 0.44174913, 11.37094402, -29.58199310, -73.16574097, 77.93577576, 15.08915520, -16.64655685, 0.75069666, -0.63165110, -0.01076031, 0.19327620, -0.01018211, 0.01050919, -0.01319093, 0.00000000, 0.00000000, 0.00000000, 0.00000000
1, 0.3975, 143, 0.27001917, -0.95059061, -0.18427041, -1.03095007, 2.08053827, 0.30539924, 11.37094402, -29.58199310, -73.16574097, 77.93461609, 15.08949661, -16.64112473, 0.75071168, -0.63164306, -0.01079452, 0.19324228, -0.00969175, 0.00639886, -0.01755068, 0.00000000, 0.00000000, 0.00000000, 0.00000000
1, 0.4000, 144, 0.27074420, -0.94815505, -0.18240166, -1.38862801, 1.86946881, 0.30370623, 11.37094402, -29.58199310, -73.16574097, 77.93241119, 15.08973026, -16.63622665, 0.75073165, -0.63162822, -0.01082681, 0.19321121, -0.01041284, 0.00397217, -0.01945546, 0.00000000, 0.00000000, 0.00000000, 0.00000000
1, 0.4025, 145, 0.27292469, -0.94523156, -0.17979522, -1.96331739, 1.79705656, 0.16472259, 11.37094402, -29.58199310, -73.16574097, 77.92871094, 15.09026623, -16.63158607, 0.75075901, -0.63160372, -0.01086225, 0.19318329, -0.01258430, 0.00106412, -0.02212240, 0.00000000, 0.00000000, 0.00000000, 0.00000000
1, 0.4050, 146, 0.27206191, -0.94202769, -0.18059978, -2.68040323, 1.58262944, 0.16415881, 11.37094402, -29.58199310, -73.16574097, 77.92307281, 15.09068966, -16.62748909, 0.75079632, -0.63156652, -0.01089720, 0.19315815, -0.01171437, -0.00211793, -0.02141029, 0.00000000, 0.00000000, 0.00000000, 0.00000000
1, 0.4075, 147, 0.27436793, -0.94033271, -0.17801240, -3.18163109, 1.36801946, 0.30276716, 11.07863140, -29.81584358, -73.54574585, 77.91606903, 15.09066772, -16.62385750, 0.75084096, -0.63152021, -0.01092884, 0.19313355, -0.01402080, -0.00378835, -0.02411314, 0.00000000, 0.00000000, 0.00000000, 0.00000000
1, 0.4100, 148, 0.27390242, -0.94356364, -0.17573915, -3.03513551, 1.08801818, 0.57825190, 11.07863140, -29.81584358, -73.54574585, 77.90927887, 15.08982277, -16.62079048, 0.75088501, -0.63147521, -0.01095149, 0.19310836, -0.01356950, -0.00053722, -0.02649911, 0.00000000, 0.00000000, 0.00000000, 0.00000000
1, 0.4400, 149, 0.24385256, -0.95319295, -0.21724997, 1.30289567, -1.72581387, 1.50507820, 11.40017509, -29.58199310, -73.22420502, 77.96414948, 15.02280807, -16.65491676, 0.75063670, -0.63182032, -0.01021793, 0.19298486, 0.01535091, 0.00860161, 0.01585265, 0.00000000, 0.00000000, 0.00000000, 0.00000000
1, 0.4425, 150, 0.24277587, -0.95664823, -0.21668968, 0.86782634, -1.31112170, 1.30230319, 11.40017509, -29.58199310, -73.22420502, 77.96563721, 15.01894093, -16.65753746, 0.75063062, -0.63182932, -0.01017486, 0.19298184, 0.01636239, 0.01203460, 0.01531318, 0.00000000, 0.00000000, 0.00000000, 0.00000000
1, 0.4450, 151, 0.24133289, -0.95815599, -0.21487685, 0.35961568, -0.75752729, 1.03171062, 10.81555080, -30.31277466, -73.10727692, 77.96618652, 15.01602268, -16.65889931, 0.75063020, -0.63183224, -0.01014671, 0.19297546, 0.01775617, 0.01352752, 0.01350661, 0.00000000, 0.00000000, 0.00000000, 0.00000000
1, 0.4475, 152, 0.24049124, -0.95891470, -0.21366477, -0.00284482, -0.47624475, 0.54712915, 10.81555080, -30.31277466, -73.10727692, 77.96593475, 15.01443481, -16.65980911, 0.75063270, -0.63183028, -0.01013138, 0.19297306, 0.01857108, 0.01428008, 0.01228893, 0.00000000, 0.00000000, 0.00000000, 0.00000000
1, 0.4500, 153, 0.23844208, -0.95885003, -0.21023805, -0.22111592, -0.19801331, 0.34179509, 10.81555080, -30.31277466, -73.10727692, 77.96529388, 15.01349545, -16.66012383, 0.75063711, -0.63182580, -0.01012436, 0.19297011, 0.02060439, 0.01421351, 0.00885080, 0.00000000, 0.00000000, 0.00000000, 0.00000000
1, 0.4525, 154, 0.23748295, -0.95744389, -0.20569324, -0.58441013, 0.21844885, 0.06886943, 10.81555080, -30.31277466, -73.10727692, 77.96398163, 15.01344204, -16.65953636, 0.75064552, -0.63181716, -0.01012945, 0.19296588, 0.02156262, 0.01281172, 0.00428426, 0.00000000, 0.00000000, 0.00000000, 0.00000000
1, 0.4550, 155, 0.24013756, -0.95350534, -0.20514961, -1.30627859, 0.49637413, -0.41458306, 10.81555080, -30.31277466, -73.10727692, 77.96098328, 15.01471233, -16.65850639, 0.75066167, -0.63179773, -0.01014879, 0.19296554, 0.01892944, 0.00888938, 0.00369231, 0.00000000, 0.00000000, 0.00000000, 0.00000000
1, 0.4575, 156, 0.24000899, -0.95165879, -0.20536546, -1.95590198, 0.70793045, -1.03905177, 11.22478771, -30.10815430, -73.39958954, 77.95641327, 15.01762390, -16.65727234, 0.75068408, -0.63176847, -0.01018294, 0.19297236, 0.01910706, 0.00707173, 0.00383563, 0.00000000, 0.00000000, 0.00000000, 0.00000000
1, 0.4600, 157, 0.24350394, -0.94671381, -0.20615231, -2.67860413, 1.12103546, -1.31084824, 11.22478771, -30.10815430, -73.39958954, 77.95026398, 15.02141094, -16.65514755, 0.75071532, -0.63172907, -0.01023065, 0.19297782, 0.01567598, 0.00216526, 0.00452471, 0.00000000, 0.00000000, 0.00000000, 0.00000000
1, 0.4625, 158, 0.24833359, -0.94176787, -0.20657527, -3.68857551, 1.46551251, -1.79245651, 11.22478771, -30.10815430, -73.39958954, 77.94174957, 15.02656174, -16.65240479, 0.75075829, -0.63167441, -0.01029488, 0.19298615, 0.01093315, -0.00272805, 0.00481221, 0.00000000, 0.00000000, 0.00000000, 0.00000000
1, 0.4650, 159, 0.25183120, -0.93852979, -0.20836581, -4.48384190, 1.94828212, -2.13301110, 11.22478771, -30.10815430, -73.39958954, 77.93151855, 15.03279209, -16.64862633, 0.75081056, -0.63160866, -0.01037506, 0.19299319, 0.00754055, -0.00590247, 0.00644006, 0.00000000, 0.00000000, 0.00000000, 0.00000000
1, 0.4675, 160, 0.25569710, -0.93421853, -0.20769674, -5.13408613, 2.29282069, -2.40597439, 11.22478771, -30.10815430, -73.39958954, 77.91986084, 15.03987503, -16.64412308, 0.75087065, -0.63153368, -0.01046739, 0.19299985, 0.00379404, -0.01014125, 0.00558543, 0.00000000, 0.00000000, 0.00000000, 0.00000000
1, 0.4700, 161, 0.25777793, -0.93538111, -0.20307530, -5.71417904, 2.84574342, -2.67634082, 10.90324497, -29.99123001, -73.22420502, 77.90706635, 15.04790592, -16.63836861, 0.75093746, -0.63145149, -0.01057494, 0.19300318, 0.00184855, -0.00889796, 0.00076084, 0.00000000, 0.00000000, 0.00000000, 0.00000000
1, 0.4725, 162, 0.26057783, -0.93481094, -0.19903980, -6.07715273, 3.25890994, -2.73949194, 10.90324497, -29.99123001, -73.22420502, 77.89363861, 15.05631065, -16.63160896, 0.75100887, -0.63136500, -0.01069166, 0.19300176, -0.00080967, -0.00938332, -0.00348808, 0.00000000, 0.00000000, 0.00000000, 0.00000000
1, 0.4750, 163, 0.26072052, -0.93683589, -0.19491637, -6.00757790, 3.53653169, -2.73595500, 10.90324497, -29.99123001, -73.22420502, 77.88056183, 15.06485271, -16.62414360, 0.75107926, -0.63128084, -0.01081258, 0.19299647, -0.00080839, -0.00727433, -0.00781888, 0.00000000, 0.00000000, 0.00000000, 0.00000000
1, 0.4775, 164, 0.26377323, -0.93800271, -0.18968600, -5.36021805, 3.53818059, -2.45828795, 10.90324497, -29.99123001, -73.22420502, 77.86913300, 15.07272148, -16.61652184, 0.75114191, -0.63120729, -0.01092699, 0.19298676, -0.00372851, -0.00603229, -0.01323003, 0.00000000, 0.00000000, 0.00000000, 0.00000000
1, 0.4800, 165, 0.26560563, -0.93902093, -0.18665040, -4.13701487, 3.47376680, -2.04351926, 10.90324497, -29.99123001, -73.22420502, 77.87505341, 15.08635426, -16.60525703, 0.75110555, -0.63124853, -0.01107129, 0.19298509, -0.00533116, -0.00497431, -0.01615510, 0.00000000, 0.00000000, 0.00000000, 0.00000000
1, 0.4825, 166, 0.26805556, -0.93838680, -0.17858069, -2.12048769, 3.13649344, -1.42522299, 12.10172462, -31.86202812, -73.77959442, 77.87162018, 15.09148788, -16.59809494, 0.75112796, -0.63122666, -0.01115124, 0.19296473, -0.00769457, -0.00557363, -0.02427645, 0.00000000, 0.00000000, 0.00000000, 0.00000000
1, 0.4850, 167, 0.26635364, -0.93449801, -0.17595151, 0.25743443, 2.52892160, -1.02159357, 12.10172462, -31.86202812, -73.77959442, 77.87378693, 15.09531212, -16.59224319, 0.75111943, -0.63124126, -0.01120566, 0.19294667, -0.00592822, -0.00945306, -0.02686626, 0.00000000, 0.00000000, 0.00000000, 0.00000000
1, 0.4875, 168, 0.26658738, -0.93155402, -0.17541814, 2.49447680, 1.57382035, -0.62221617, 12.10172462, -31.86202812, -73.77959442, 77.88097382, 15.09765816, -16.58859825, 0.75108212, -0.63128859, -0.01122952, 0.19293581, -0.00612244, -0.01241202, -0.02727913, 0.00000000, 0.00000000, 0.00000000, 0.00000000
1, 0.4900, 169, 0.26766694, -0.92580867, -0.17276624, 4.22651100, 0.82282937, -0.28836054, 12.10172462, -31.86202812, -73.77959442, 77.89203644, 15.09879398, -16.58667183, 0.75102252, -0.63136125, -0.01122918, 0.19293024, -0.00718284, -0.01819146, -0.02974755, 0.00000000, 0.00000000, 0.00000000, 0.00000000
1, 0.4925, 170, 0.26630893, -0.92074776, -0.17464113, 5.02419186, 0.06201112, 0.11835603, 12.10172462, -31.86202812, -73.77959442, 77.90464783, 15.09853649, -16.58645630, 0.75095391, -0.63144386, -0.01120742, 0.19292870, -0.00582919, -0.02329797, -0.02766513, 0.00000000, 0.00000000, 0.00000000, 0.00000000
1, 0.4950, 171, 0.26991528, -0.91576231, -0.17823812, 5.17451096, -0.70045614, 0.24740578, 11.54633141, -30.04969215, -73.16574097, 77.91716003, 15.09756279, -16.58809090, 0.75088382, -0.63152575, -0.01117076, 0.19293556, -0.00945190, -0.02833200, -0.02386288, 0.00000000, 0.00000000, 0.00000000, 0.00000000
1, 0.4975, 172, 0.27449009, -0.91064596, -0.18207949, 5.10662270, -1.12204540, 0.59161133, 11.54633141, -30.04969215, -73.16574097, 77.92926788, 15.09552956, -16.59061050, 0.75081617, -0.63160479, -0.01112273, 0.19294254, -0.01406101, -0.03350002, -0.01982391, 0.00000000, 0.00000000, 0.00000000, 0.00000000
1, 0.5000, 173, 0.27627745, -0.90784663, -0.18815017, 4.96296549, -1.12448692, 0.66198796, 11.54633141, -30.04969215, -73.16574097, 77.94103241, 15.09332275, -16.59309959, 0.75075090, -0.63168156, -0.01107430, 0.19294840, -0.01588554, -0.03635073, -0.01356149, 0.00000000, 0.00000000, 0.00000000, 0.00000000
1, 0.5025, 174, 0.27564558, -0.90544289, -0.19312218, 4.67780828, -1.34147656, 1.07961822, 11.54633141, -30.04969215, -73.16574097, 77.95198822, 15.08998299, -16.59591484, 0.75069124, -0.63175273, -0.01101775, 0.19295034, -0.01530996, -0.03880770, -0.00841209, 0.00000000, 0.00000000, 0.00000000, 0.00000000
1, 0.5050, 175, 0.27734745, -0.90787756, -0.19426271, 4.31998014, -1.48770297, 1.35856533, 11.54633141, -30.04969215, -73.16574097, 77.96199799, 15.08588886, -16.59894753, 0.75063777, -0.63181752, -0.01095648, 0.19294964, -0.01708081, -0.03642648, -0.00711051, 0.00000000, 0.00000000, 0.00000000, 0.00000000
1, 0.5075, 176, 0.27638945, -0.91180652, -0.19493188, 4.10256100, -1.21825957, 1.71263003, 10.84478188, -30.04969215, -72.55188751, 77.97168732, 15.08106613, -16.60111046, 0.75058872, -0.63187999, -0.01089565, 0.19293937, -0.01620409, -0.03255308, -0.00628610, 0.00000000, 0.00000000, 0.00000000, 0.00000000
1, 0.5100, 177, 0.27216077, -0.91588062, -0.19510779, 3.59740281, -0.94930542, 1.92774844, 10.84478188, -31.24817276, -72.55188751, 77.98033142, 15.07585621, -16.60247421, 0.75054747, -0.63193536, -0.01083839, 0.19292174, -0.01206321, -0.02853233, -0.00597274, 0.00000000, 0.00000000, 0.00000000, 0.00000000
1, 0.5125, 178, 0.26795614, -0.92405069, -0.19253591, 3.02036309, -0.68102229, 2.14309287, 10.84478188, -31.24817276, -72.55188751, 77.98773956, 15.07026482, -16.60304451, 0.75051498, -0.63198251, -0.01078498, 0.19289675, -0.00795281, -0.02041322, -0.00842777, 0.00000000, 0.00000000, 0.00000000, 0.00000000
1, 0.5150, 179, 0.26447460, -0.93195760, -0.19093905, 2.30118346, -0.62069631, 2.28614163, 10.84478188, -31.24817276, -72.55188751, 77.99340057, 15.06435108, -16.60338402, 0.75049299, -0.63201809, -0.01073361, 0.19286843, -0.00457093, -0.01255232, -0.00993683, 0.00000000, 0.00000000, 0.00000000, 0.00000000
1, 0.5175, 180, 0.25638622, -0.93721849, -0.18672612, 2.01397657, -0.62667763, 2.49681950, 10.84478188, -31.24817276, -72.55188751, 77.99838257, 15.05792046, -16.60362434, 0.75047582, -0.63204902, -0.01068045, 0.19283666, 0.00340906, -0.00733739, -0.01407384, 0.00000000, 0.00000000, 0.00000000, 0.00000000
1, 0.5200, 181, 0.25413322, -0.94869983, -0.18408674, 1.65352178, -0.49265838, 2.56975532, 10.84478188, -31.24817276, -72.55188751, 78.00254822, 15.05138016, -16.60349464, 0.75046402, -0.63207465, -0.01062999, 0.19280179, 0.00555185, 0.00410032, -0.01665062, 0.00000000, 0.00000000, 0.00000000, 0.00000000
1, 0.5225, 182, 0.25413322, -0.94869983, -0.18408674, 1.65352178, -0.49265838, 2.56975532, 10.96170712, -30.60508537, -72.90265656, 78.00671387, 15.04484081, -16.60335732, 0.75045210, -0.63210022, -0.01057953, 0.19276689, 0.00544161, 0.00405681, -0.01658804, 0.00000000, 0.00000000, 0.00000000, 0.00000000
1, 0.5250, 183, 0.24883462, -0.95528758, -0.18075521, 0.64701021, -0.56360668, 2.08250260, 10.96170712, -30.60508537, -72.90265656, 78.00826263, 15.03945637, -16.60366440, 0.75045204, -0.63210893, -0.01053886, 0.19274071, 0.01064946, 0.01061523, -0.01989923, 0.00000000, 0.00000000, 0.00000000, 0.00000000
1, 0.5275, 184, 0.24883462, -0.95528758, -0.18075521, 0.64701021, -0.56360668, 2.08250260, 10.96170712, -30.60508537, -72.90265656, 78.00979614, 15.03406906, -16.60396957, 0.75045198, -0.63211763, -0.01049820, 0.19271453, 0.01055865, 0.01058602, -0.01987894, 0.00000000, 0.00000000, 0.00000000, 0.00000000
1, 0.5300, 185, 0.24955341, -0.95609760, -0.18406843, -0.28819641, -0.56464595, 1.59596443, 10.96170712, -30.60508537, -72.90265656, 78.07488251, 14.99066162, -16.58395195, 0.75019866, -0.63253075, -0.01020609, 0.19236089, 0.00910813, 0.01097667, -0.01553302, 0.00000000, 0.00000000, 0.00000000, 0.00000000
1, 0.5325, 186, 0.25025967, -0.95310098, -0.18707892, -0.93624026, -0.49595886, 1.24931347, 10.96170712, -30.60508537, -72.90265656, 78.07238770, 14.98734951, -16.58453751, 0.75021696, -0.63251364, -0.01018466, 0.19234708, 0.00834602, 0.00797415, -0.01256672, 0.00000000, 0.00000000, 0.00000000, 0.00000000
1, 0.5350, 187, 0.25157881, -0.95025045, -0.18825996, -1.58407104, -0.42946890, 1.04251230, 10.78631973, -30.66354752, -72.81496429, 78.06829834, 14.98457813, -16.58506966, 0.75024331, -0.63248616, -0.01016989, 0.19233559, 0.00698015, 0.00512564, -0.01145584, 0.00000000, 0.00000000, 0.00000000, 0.00000000
1, 0.5375, 188, 0.25460058, -0.94850522, -0.18897262, -2.09102178, -0.01544810, 0.83996332, 10.78631973, -30.66354752, -72.81496429, 78.06317139, 14.98251534, -16.58465767, 0.75027567, -0.63245207, -0.01016682, 0.19232160, 0.00392360, 0.00338924, -0.01082955, 0.00000000, 0.00000000, 0.00000000, 0.00000000
1, 0.5400, 189, 0.25809479, -0.94549555, -0.19198863, -2.88282871, 0.05189605, 0.49376413, 10.78631973, -30.66354752, -72.81496429, 78.05606842, 14.98133564, -16.58426285, 0.75031751, -0.63240522, -0.01017296, 0.19231217, 0.00040951, 0.00039899, -0.00793175, 0.00000000, 0.00000000, 0.00000000, 0.00000000
1, 0.5425, 190, 0.25930044, -0.94364619, -0.19196279, -3.45783734, -0.01722055, 0.14500590, 10.78631973, -30.66354752, -72.81496429, 78.04744720, 14.98097134, -16.58422661, 0.75036567, -0.63234854, -0.01018518, 0.19230923, -0.00080231, -0.00142169, -0.00810036, 0.00000000, 0.00000000, 0.00000000, 0.00000000
1, 0.5450, 191, 0.26194388, -0.93832952, -0.19323099, -3.96399856, 0.32536554, 0.08136570, 10.78631973, -30.66354752, -72.81496429, 78.03775024, 14.98094273, -16.58336067, 0.75042075, -0.63228506, -0.01020602, 0.19230255, -0.00344622, -0.00670475, -0.00699198, 0.00000000, 0.00000000, 0.00000000, 0.00000000
1, 0.5475, 192, 0.26423874, -0.93574113, -0.19295166, -4.32618332, 0.66709757, 0.15712354, 10.69862556, -30.89739799, -73.39958954, 78.02739716, 14.98090172, -16.58158684, 0.75048095, -0.63221711, -0.01023292, 0.19228981, -0.00574178, -0.00925702, -0.00744212, 0.00000000, 0.00000000, 0.00000000, 0.00000000
1, 0.5500, 193, 0.26411405, -0.93391025, -0.19206798, -4.83014393, 0.73383194, 0.01979551, 10.69862556, -30.89739799, -73.39958954, 78.01580811, 14.98123646, -16.57971954, 0.75054747, -0.63214111, -0.01026492, 0.19227830, -0.00561145, -0.01104588, -0.00851661, 0.00000000, 0.00000000, 0.00000000, 0.00000000
1, 0.5525, 194, 0.26702359, -0.93268663, -0.19071105, -4.90433311, 1.01011074, 0.02378435, 10.69862556, -30.89739799, -73.39958954, 78.00421906, 14.98170090, -16.57714844, 0.75061488, -0.63206500, -0.01030171, 0.19226284, -0.00851312, -0.01222688, -0.01006441, 0.00000000, 0.00000000, 0.00000000, 0.00000000
1, 0.5550, 195, 0.26726937, -0.93148774, -0.18849364, -4.97758102, 1.15011156, -0.11395800, 10.69862556, -30.89739799, -73.39958954, 77.99250031, 14.98257637, -16.57429695, 0.75068283, -0.63198829, -0.01034299, 0.19224773, -0.00874415, -0.01338083, -0.01247406, 0.00000000, 0.00000000, 0.00000000, 0.00000000
1, 0.5575, 196, 0.26739061, -0.93148714, -0.18849388, -5.26463699, 1.07928669, -0.18392022, 10.69862556, -30.89739799, -73.39958954, 77.98001862, 14.98358917, -16.57166481, 0.75075442, -0.63190651, -0.01038528, 0.19223468, -0.00884831, -0.01333326, -0.01267878, 0.00000000, 0.00000000, 0.00000000, 0.00000000
1, 0.5600, 197, 0.26764026, -0.93042493, -0.18530099, -5.26406050, 1.01004899, -0.18486096, 10.64016342, -30.07892418, -72.99035645, 77.96749115, 14.98456573, -16.56921005, 0.75082600, -0.63182443, -0.01042645, 0.19222260, -0.00908151, -0.01434708, -0.01607735, 0.00000000, 0.00000000, 0.00000000, 0.00000000
1, 0.5625, 198, 0.26788655, -0.93080300, -0.18457410, -5.19023466, 0.80081087, -0.04805934, 10.64016342, -30.07892418, -72.99035645, 77.95502472, 14.98510075, -16.56720734, 0.75089717, -0.63174278, -0.01046200, 0.19221117, -0.00931880, -0.01392275, -0.01700920, 0.00000000, 0.00000000, 0.00000000, 0.00000000
1, 0.5650, 199, 0.26983419, -0.93203872, -0.18349724, -4.90317965, 0.87163574, 0.02190286, 10.64016342, -30.07892418, -72.99035645, 77.94333649, 14.98550129, -16.56499290, 0.75096470, -0.63166606, -0.01049653, 0.19219768, -0.01125968, -0.01264418, -0.01827847, 0.00000000, 0.00000000, 0.00000000, 0.00000000
1, 0.5675, 200, 0.27166069, -0.93424433, -0.18341254, -4.61407328, 0.73145229, 0.29881734, 10.64016342, -30.07892418, -72.99035645, 77.93231964, 14.98515320, -16.56297874, 0.75102937, -0.63159359, -0.01052375, 0.19218165, -0.01309204, -0.01040125, -0.01854514, 0.00000000, 0.00000000, 0.00000000, 0.00000000
1, 0.5700, 201, 0.27096313, -0.93982035, -0.18056375, -3.67572641, 0.32036173, 0.56993628, 10.64016342, -30.07892418, -72.99035645, 77.92342377, 14.98392582, -16.56185913, 0.75108236, -0.63153487, -0.01053655, 0.19216704, -0.01241517, -0.00479931, -0.02154179, 0.00000000, 0.00000000, 0.00000000, 0.00000000
1, 0.5725, 202, 0.26845154, -0.94408929, -0.17512506, -1.73255396, 0.12418726, 0.98056525, 10.81555080, -29.81584358, -73.34112549, 77.91931915, 14.98159504, -16.56101036, 0.75111020, -0.63150722, -0.01053234, 0.19214883, -0.00994289, -0.00052613, -0.02705038, 0.00000000, 0.00000000, 0.00000000, 0.00000000
1, 0.5750, 203, 0.26507768, -0.94636798, -0.17160931, 0.49882811, -0.13963751, 1.45927489, 10.81555080, -29.81584358, -73.34112549, 77.92066956, 14.97795296, -16.56057358, 0.75110954, -0.63151515, -0.01050786, 0.19212696, -0.00663042, 0.00173169, -0.03054718, 0.00000000, 0.00000000, 0.00000000, 0.00000000
1, 0.5775, 204, 0.26143628, -0.94309413, -0.16959658, 2.51849580, -0.88904107, 1.86215210, 10.81555080, -29.81584358, -73.34112549, 77.92664337, 14.97293377, -16.56181526, 0.75108284, -0.63155305, -0.01045707, 0.19210927, -0.00307363, -0.00158536, -0.03246620, 0.00000000, 0.00000000, 0.00000000, 0.00000000
1, 0.5800, 205, 0.25960550, -0.94026518, -0.17028271, 4.03315544, -1.43433344, 2.19950771, 10.81555080, -29.81584358, -73.34112549, 77.97103119, 14.97145748, -16.55497360, 0.75085211, -0.63184291, -0.01041042, 0.19206069, -0.00126776, -0.00457710, -0.03104962, 0.00000000, 0.00000000, 0.00000000, 0.00000000
1, 0.5825, 206, 0.25741214, -0.94144022, -0.17481752, 5.04872465, -2.53273439, 2.18129373, 10.81555080, -29.81584358, -73.34112549, 77.98229980, 14.96480656, -16.56020546, 0.75079221, -0.63191551, -0.01031771, 0.19206102, 0.00081345, -0.00347102, -0.02633519, 0.00000000, 0.00000000, 0.00000000, 0.00000000
1, 0.5850, 207, 0.25704676, -0.94179851, -0.17567761, 5.98801184, -3.08010292, 2.31068134, 11.19555664, -30.57585526, -73.63343811, 77.99557495, 14.95755291, -16.56675529, 0.75072002, -0.63200122, -0.01021031, 0.19206698, 0.00105652, -0.00319123, -0.02526288, 0.00000000, 0.00000000, 0.00000000, 0.00000000
1, 0.5875, 208, 0.25644127, -0.94434774, -0.17815936, 6.70945311, -3.35363436, 2.51443458, 11.19555664, -30.57585526, -73.63343811, 78.01050568, 14.94966030, -16.57389259, 0.75063884, -0.63209760, -0.01009260, 0.19207354, 0.00152895, -0.00072914, -0.02254230, 0.00000000, 0.00000000, 0.00000000, 0.00000000
1, 0.5900, 209, 0.25522453, -0.94736356, -0.18260215, 6.92614555, -3.48899651, 2.44195032, 11.19555664, -30.57585526, -73.63343811, 78.02587891, 14.94187737, -16.58140945, 0.75055426, -0.63219690, -0.00997277, 0.19208315, 0.00261444, 0.00219858, -0.01785313, 0.00000000, 0.00000000, 0.00000000, 0.00000000
1, 0.5925, 210, 0.25352728, -0.95136845, -0.18681470, 6.99881744, -3.55975962, 2.58063364, 11.19555664, -30.57585526, -73.63343811, 78.04141998, 14.93372059, -16.58903694, 0.75046927, -0.63229716, -0.00984955, 0.19209151, 0.00417411, 0.00611335, -0.01339185, 0.00000000, 0.00000000, 0.00000000, 0.00000000
1, 0.5950, 211, 0.25231528, -0.95488811, -0.19040981, 6.70992374, -3.42177320, 2.44356871, 11.19555664, -30.57585526, -73.63343811, 78.05629730, 14.92597294, -16.59638786, 0.75038767, -0.63239318, -0.00973170, 0.19210015, 0.00525546, 0.00954694, -0.00955847, 0.00000000, 0.00000000, 0.00000000, 0.00000000
1, 0.5975, 212, 0.25002906, -0.95945001, -0.19023058, 6.63840628, -3.48948526, 2.30300426, 11.28325081, -30.78047371, -73.66267395, 78.07093048, 14.91853714, -16.60399246, 0.75030655, -0.63248777, -0.00961498, 0.19211203, 0.00741628, 0.01402510, -0.00950311, 0.00000000, 0.00000000, 0.00000000, 0.00000000
1, 0.6000, 213, 0.24955332, -0.96263927, -0.19088942, 6.70729685, -3.14152741, 2.23755717, 11.28325081, -30.78047371, -73.66267395, 78.08596802, 14.91144371, -16.61074829, 0.75022399, -0.63258487, -0.00950457, 0.19212016, 0.00777236, 0.01713073, -0.00860277, 0.00000000, 0.00000000, 0.00000000, 0.00000000
1, 0.6025, 214, 0.24786955, -0.96306449, -0.18747096, 6.84911823, -2.93027496, 2.10007834, 11.28325081, -30.78047371, -73.66267395, 78.10147095, 14.90479469, -16.61704636, 0.75013888, -0.63268512, -0.00939892, 0.19212765, 0.00934401, 0.01747275, -0.01177158, 0.00000000, 0.00000000, 0.00000000, 0.00000000
1, 0.6050, 215, 0.24846303, -0.95852792, -0.18642515, 6.70435143, -2.85798621, 1.82177138, 11.28325081, -30.78047371, -73.66267395, 78.11663055, 14.89886570, -16.62330818, 0.75005442, -0.63278317, -0.00929890, 0.19213863, 0.00865054, 0.01285756, -0.01257277, 0.00000000, 0.00000000, 0.00000000, 0.00000000
1, 0.6075, 216, 0.24529150, -0.95397931, -0.18744878, 6.05609512, -2.78710222, 1.33527076, 11.28325081, -30.78047371, -73.66267395, 78.13014221, 14.89416504, -16.62965393, 0.74997699, -0.63287097, -0.00920947, 0.19215651, 0.01174280, 0.00824142, -0.01133032, 0.00000000, 0.00000000, 0.00000000, 0.00000000
1, 0.6100, 217, 0.24855071, -0.95463550, -0.19210900, 4.97733879, -2.79168129, 0.98903412, 11.02016926, -30.10815430, -73.13651276, 78.14090729, 14.89031124, -16.63619423, 0.74991298, -0.63294089, -0.00912927, 0.19217987, 0.00841856, 0.00884336, -0.00649600, 0.00000000, 0.00000000, 0.00000000, 0.00000000
1, 0.6125, 218, 0.25423977, -0.95360649, -0.19344908, 3.75528860, -2.86574244, 0.57238370, 11.02016926, -30.10815430, -73.13651276, 78.14850616, 14.88743877, -16.64314842, 0.74986410, -0.63299042, -0.00905874, 0.19221082, 0.00268108, 0.00777543, -0.00503311, 0.00000000, 0.00000000, 0.00000000, 0.00000000
1, 0.6150, 219, 0.26256117, -0.94842750, -0.20047428, 2.24210191, -2.46222043, 0.44292134, 11.02016926, -30.10815430, -73.13651276, 78.15256500, 14.88509083, -16.64914513, 0.74983549, -0.63301682, -0.00900294, 0.19223802, -0.00567994, 0.00257194, 0.00205697, 0.00000000, 0.00000000, 0.00000000, 0.00000000
1, 0.6175, 220, 0.26557085, -0.94372541, -0.20163043, 0.87325484, -2.12659359, 0.31206644, 11.02016926, -30.10815430, -73.13651276, 78.15340424, 14.88323498, -16.65436554, 0.74982518, -0.63302225, -0.00896018, 0.19226246, -0.00872094, -0.00214112, 0.00322525, 0.00000000, 0.00000000, 0.00000000, 0.00000000
1, 0.6200, 221, 0.26557085, -0.94372541, -0.20163043, 0.87325484, -2.12659359, 0.31206644, 11.02016926, -30.10815430, -73.13651276, 78.15425110, 14.88137913, -16.65958214, 0.74981487, -0.63302767, -0.00891741, 0.19228689, -0.00875223, -0.00215226, 0.00323741, 0.00000000, 0.00000000, 0.00000000, 0.00000000
1, 0.6225, 222, 0.26919872, -0.94209850, -0.20246835, -1.44226933, -0.34460762, 0.13397846, 11.22478771, -30.86816597, -72.99035645, 78.15043640, 14.88087463, -16.66038322, 0.74983537, -0.63300264, -0.00891598, 0.19228917, -0.01238859, -0.00376815, 0.00401200, 0.00000000, 0.00000000, 0.00000000, 0.00000000
1, 0.6250, 223, 0.26919872, -0.94209850, -0.20246835, -1.44226933, -0.34460762, 0.13397846, 11.22478771, -30.86816597, -72.99035645, 78.14662170, 14.88037109, -16.66118431, 0.74985594, -0.63297766, -0.00891454, 0.19229148, -0.01239708, -0.00375712, 0.00394864, 0.00000000, 0.00000000, 0.00000000, 0.00000000
1, 0.6275, 224, 0.27063084, -0.93642741, -0.20311764, -3.24586582, 0.40241620, 0.01012315, 11.22478771, -30.86816597, -72.99035645, 78.13877106, 14.88055229, -16.66016197, 0.74990076, -0.63292623, -0.00893460, 0.19228514, -0.01382617, -0.00940007, 0.00446840, 0.00000000, 0.00000000, 0.00000000, 0.00000000
1, 0.6300, 225, 0.27184036, -0.93519962, -0.20261255, -4.03803635, 0.53680086, -0.19528559, 11.22478771, -30.86816597, -72.99035645, 78.11811066, 14.91162586, -16.66383553, 0.74995714, -0.63279963, -0.00915879, 0.19247124, -0.01451156, -0.01041973, 0.00365092, 0.00000000, 0.00000000, 0.00000000, 0.00000000
1, 0.6325, 226, 0.27293307, -0.93592852, -0.20287032, -4.68612385, 0.66923290, -0.19137147, 11.22478771, -30.86816597, -72.99035645, 78.10679626, 14.91243744, -16.66224098, 0.75002092, -0.63272572, -0.00919206, 0.19246419, -0.01559055, -0.00964809, 0.00372283, 0.00000000, 0.00000000, 0.00000000, 0.00000000
1, 0.6350, 227, 0.27268425, -0.93614596, -0.20495051, -5.26337719, 0.93971294, -0.11587687, 11.04940033, -29.84507370, -73.37036133, 78.09423828, 14.91320705, -16.65992355, 0.75009280, -0.63264346, -0.00923113, 0.19245203, -0.01532879, -0.00938356, 0.00559643, 0.00000000, 0.00000000, 0.00000000, 0.00000000
1, 0.6375, 228, 0.27498525, -0.93685353, -0.20631021, -5.48017550, 1.07617378, -0.11331782, 11.04940033, -29.84507370, -73.37036133, 78.08123016, 14.91404247, -16.65725899, 0.75016773, -0.63255829, -0.00927331, 0.19243793, -0.01761574, -0.00862706, 0.00674217, 0.00000000, 0.00000000, 0.00000000, 0.00000000
1, 0.6400, 229, 0.27559912, -0.93882084, -0.20609720, -5.48169231, 1.28168941, 0.02935412, 11.04940033, -29.84507370, -73.37036133, 78.06835938, 14.91462994, -16.65400314, 0.75024337, -0.63247401, -0.00931690, 0.19241868, -0.01821965, -0.00661236, 0.00631742, 0.00000000, 0.00000000, 0.00000000, 0.00000000
1, 0.6425, 230, 0.27451205, -0.93884152, -0.20499551, -5.12358761, 1.48836529, 0.31074649, 11.04940033, -29.84507370, -73.37036133, 78.05656433, 14.91464043, -16.65006638, 0.75031495, -0.63239640, -0.00935848, 0.19239199, -0.01713243, -0.00655043, 0.00502110, 0.00000000, 0.00000000, 0.00000000, 0.00000000
1, 0.6450, 231, 0.27367121, -0.93911904, -0.20304288, -4.54785204, 1.42340100, 0.37792385, 11.04940033, -29.84507370, -73.37036133, 78.04616547, 14.91445255, -16.64626312, 0.75037903, -0.63232797, -0.00939566, 0.19236524, -0.01629475, -0.00623745, 0.00289674, 0.00000000, 0.00000000, 0.00000000, 0.00000000
1, 0.6475, 232, 0.27210441, -0.94001108, -0.20134257, -4.18891430, 1.49489725, 0.44766015, 11.98479939, -29.84507370, -73.80883026, 78.03672791, 14.91413116, -16.64224052, 0.75043845, -0.63226575, -0.00943153, 0.19233644, -0.01473337, -0.00531375, 0.00104038, 0.00000000, 0.00000000, 0.00000000, 0.00000000
1, 0.6500, 233, 0.27247018, -0.93977571, -0.20048432, -3.89839768, 1.15029681, 0.51197797, 11.98479939, -30.60508537, -73.80883026, 78.02780151, 14.91347408, -16.63905525, 0.75049412, -0.63220686, -0.00945966, 0.19231139, -0.01511023, -0.00552082, 0.00003426, 0.00000000, 0.00000000, 0.00000000, 0.00000000
1, 0.6525, 234, 0.26992458, -0.93869704, -0.19936283, -3.61112833, 1.21892452, 0.72178990, 11.98479939, -30.60508537, -73.80883026, 78.01966095, 14.91234207, -16.63558197, 0.75054675, -0.63215297, -0.00948481, 0.19228202, -0.01258374, -0.00657594, -0.00122261, 0.00000000, 0.00000000, 0.00000000, 0.00000000
1, 0.6550, 235, 0.26894930, -0.93880016, -0.20107317, -3.53845739, 1.14816153, 0.86047298, 11.98479939, -30.60508537, -73.80883026, 78.01168060, 14.91083241, -16.63221359, 0.75059885, -0.63209999, -0.00950659, 0.19225134, -0.01163390, -0.00645155, 0.00035468, 0.00000000, 0.00000000, 0.00000000, 0.00000000
1, 0.6575, 236, 0.26918483, -0.93768066, -0.20191188, -3.53499722, 0.73273593, 0.85482848, 11.98479939, -30.60508537, -73.80883026, 78.00344849, 14.90912342, -16.62989807, 0.75065100, -0.63204539, -0.00952163, 0.19222650, -0.01189825, -0.00754970, 0.00105597, 0.00000000, 0.00000000, 0.00000000, 0.00000000
1, 0.6600, 237, 0.27003682, -0.93853891, -0.20180458, -3.38997412, 0.59450519, 0.92242020, 11.98479939, -30.60508537, -73.80883026, 77.99548340, 14.90717793, -16.62789726, 0.75070149, -0.63199258, -0.00953286, 0.19220249, -0.01278305, -0.00667215, 0.00081554, 0.00000000, 0.00000000, 0.00000000, 0.00000000
1, 0.6625, 238, 0.26760867, -0.93926150, -0.20364363, -3.10003424, 0.31914225, 0.98767859, 11.16632557, -30.40046692, -73.10727692, 77.98807526, 14.90492725, -16.62656403, 0.75074840, -0.63194335, -0.00953747, 0.19218130, -0.01039285, -0.00593341, 0.00253023, 0.00000000, 0.00000000, 0.00000000, 0.00000000
1, 0.6650, 239, 0.26496869, -0.94507682, -0.20189430, -2.67036819, 0.52978522, 1.05907047, 11.16632557, -30.40046692, -73.10727692, 77.98189545, 14.90261364, -16.62465096, 0.75078952, -0.63190204, -0.00954274, 0.19215609, -0.00779191, -0.00010651, 0.00067674, 0.00000000, 0.00000000, 0.00000000, 0.00000000
1, 0.6675, 240, 0.26485530, -0.94825912, -0.20292035, -2.38273501, 0.53137249, 1.12809217, 11.16632557, -30.40046692, -73.10727692, 77.97644806, 14.90013409, -16.62269783, 0.75082695, -0.63186544, -0.00954588, 0.19212979, -0.00772032, 0.00308394, 0.00161049, 0.00000000, 0.00000000, 0.00000000, 0.00000000
1, 0.6700, 241, 0.25857109, -0.95369655, -0.20299073, -1.80836582, 0.60708016, 1.05730104, 11.16632557, -30.40046692, -73.10727692, 77.97246552, 14.89786530, -16.62059402, 0.75085616, -0.63183862, -0.00954883, 0.19210373, -0.00147438, 0.00852543, 0.00161316, 0.00000000, 0.00000000, 0.00000000, 0.00000000
1, 0.6725, 242, 0.25666407, -0.96171212, -0.20188755, -1.16017139, 0.47354963, 1.12331200, 11.16632557, -30.40046692, -73.10727692, 77.97003174, 14.89536667, -16.61878967, 0.75087672, -0.63182181, -0.00954596, 0.19207856, 0.00039047, 0.01653874, 0.00046743, 0.00000000, 0.00000000, 0.00000000, 0.00000000
1, 0.6750, 243, 0.25522166, -0.96637207, -0.20317791, -0.36695406, 0.20178838, 1.25691426, 11.40017509, -30.45892906, -73.25343323, 77.96940613, 14.89239788, -16.61760139, 0.75088710, -0.63181692, -0.00953348, 0.19205514, 0.00178281, 0.02118779, 0.00174485, 0.00000000, 0.00000000, 0.00000000, 0.00000000
1, 0.6775, 244, 0.25474977, -0.96909231, -0.20224102, -0.07769767, -0.00323848, 1.25318861, 11.40017509, -30.45892906, -73.25343323, 77.96939087, 14.88933086, -16.61693573, 0.75089341, -0.63181591, -0.00951648, 0.19203463, 0.00220299, 0.02389462, 0.00080474, 0.00000000, 0.00000000, 0.00000000, 0.00000000
1, 0.6800, 245, 0.25231418, -0.96651381, -0.20280755, 0.27961674, 0.27487198, 1.39567220, 11.40017509, -30.45892906, -73.25343323, 77.98227692, 14.84956360, -16.60993576, 0.75089979, -0.63188905, -0.00926472, 0.19178063, 0.00396773, 0.02109665, 0.00154672, 0.00000000, 0.00000000, 0.00000000, 0.00000000
1, 0.6825, 246, 0.25449300, -0.96431029, -0.20143411, 0.42348650, 0.27511635, 1.46514511, 11.40017509, -30.45892906, -73.25343323, 77.98371124, 14.84612274, -16.60845375, 0.75090015, -0.63189745, -0.00924725, 0.19175294, 0.00173089, 0.01887298, 0.00019377, 0.00000000, 0.00000000, 0.00000000, 0.00000000
1, 0.6850, 247, 0.25363788, -0.96077424, -0.19966745, 0.85419941, 0.34838262, 1.46473086, 11.40017509, -30.45892906, -73.25343323, 77.98627472, 14.84272289, -16.60678673, 0.75089443, -0.63191319, -0.00922919, 0.19172432, 0.00252864, 0.01531309, -0.00153369, 0.00000000, 0.00000000, 0.00000000, 0.00000000
1, 0.6875, 248, 0.25170380, -0.95777649, -0.19497409, 1.50019348, 0.49070385, 1.60442948, 11.69248772, -30.19584846, -73.42881775, 77.99055481, 14.83905506, -16.60468102, 0.75088036, -0.63194007, -0.00920884, 0.19169156, 0.00440085, 0.01228422, -0.00615981, 0.00000000, 0.00000000, 0.00000000, 0.00000000
1, 0.6900, 249, 0.25280032, -0.95779401, -0.19338804, 2.43638444, 0.29172006, 1.59867120, 11.69248772, -30.19584846, -73.42881775, 77.99704742, 14.83529758, -16.60308647, 0.75085348, -0.63198155, -0.00918139, 0.19166186, 0.00324091, 0.01226259, -0.00764217, 0.00000000, 0.00000000, 0.00000000, 0.00000000
1, 0.6925, 250, 0.25160193, -0.95979404, -0.19146104, 3.15729427, 0.02368143, 1.45280004, 11.69248772, -30.19584846, -73.42881775, 78.00516510, 14.83175755, -16.60223961, 0.75081593, -0.63203365, -0.00914854, 0.19163834, 0.00437957, 0.01421863, -0.00943856, 0.00000000, 0.00000000, 0.00000000, 0.00000000
1, 0.6950, 251, 0.25209931, -0.96238679, -0.19052418, 3.80559492, -0.11094763, 1.58873570, 11.69248772, -30.19584846, -73.42881775, 78.01482391, 14.82781315, -16.60166740, 0.75077009, -0.63209581, -0.00910891, 0.19161460, 0.00381565, 0.01676035, -0.01021970, 0.00000000, 0.00000000, 0.00000000, 0.00000000
1, 0.6975, 252, 0.25041136, -0.96509695, -0.19068441, 4.09207439, 0.02911478, 1.65963864, 11.69248772, -30.19584846, -73.42881775, 78.02529907, 14.82376957, -16.60070419, 0.75072068, -0.63216335, -0.00906939, 0.19158785, 0.00543538, 0.01941622, -0.00989025, 0.00000000, 0.00000000, 0.00000000, 0.00000000
1, 0.7000, 253, 0.25270629, -0.96372032, -0.19164562, 4.30987549, -0.18097760, 1.93583822, 10.78631973, -29.99123001, -74.07190704, 78.03621674, 14.81894016, -16.60012627, 0.75066942, -0.63223350, -0.00902171, 0.19155949, 0.00305897, 0.01798016, -0.00875333, 0.00000000, 0.00000000, 0.00000000, 0.00000000
1, 0.7025, 254, 0.25329548, -0.95843929, -0.19107719, 4.30998230, -0.18207611, 2.00576329, 10.78631973, -29.99123001, -74.07190704, 78.04714966, 14.81393909, -16.59951210, 0.75061834, -0.63230366, -0.00897305, 0.19152997, 0.00238541, 0.01263905, -0.00914599, 0.00000000, 0.00000000, 0.00000000, 0.00000000
1, 0.7050, 255, 0.25279406, -0.95268047, -0.18988822, 4.23763037, -0.11460855, 2.07685471, 10.78631973, -29.99123001, -74.07190704, 78.05795288, 14.80879974, -16.59868622, 0.75056857, -0.63237298, -0.00892482, 0.19149837, 0.00280011, 0.00682008, -0.01016136, 0.00000000, 0.00000000, 0.00000000, 0.00000000
1, 0.7075, 256, 0.25374126, -0.94616342, -0.18966819, 4.16794920, -0.39113176, 2.00339270, 10.78631973, -29.99123001, -74.07190704, 78.06840515, 14.80369949, -16.59860420, 0.75051945, -0.63244003, -0.00887336, 0.19147177, 0.00176683, 0.00024432, -0.01021357, 0.00000000, 0.00000000, 0.00000000, 0.00000000
1, 0.7100, 257, 0.25516087, -0.93850315, -0.19187558, 4.02659893, -0.67052341, 2.07000613, 10.78631973, -29.99123001, -74.07190704, 78.07832336, 14.79828930, -16.59919357, 0.75047266, -0.63250357, -0.00881700, 0.19144791, 0.00025594, -0.00747412, -0.00784743, 0.00000000, 0.00000000, 0.00000000, 0.00000000
1, 0.7125, 258, 0.25490925, -0.93434793, -0.19022287, 3.81257749, -0.87915200, 1.99793661, 11.02016926, -30.28354263, -73.34112549, 78.08755493, 14.79294872, -16.60035324, 0.75042856, -0.63256264, -0.00875911, 0.19142807, 0.00041741, -0.01168472, -0.00935272, 0.00000000, 0.00000000, 0.00000000, 0.00000000
1, 0.7150, 259, 0.25491616, -0.93619335, -0.19012894, 3.81084752, -0.67143929, 2.00075889, 11.02016926, -30.28354263, -73.34112549, 78.09691620, 14.78770924, -16.60098648, 0.75038457, -0.63262266, -0.00870459, 0.19140533, 0.00032207, -0.00989491, -0.00929676, 0.00000000, 0.00000000, 0.00000000, 0.00000000
1, 0.7175, 260, 0.25420356, -0.93928510, -0.18907504, 3.88503599, -0.94771808, 1.99676991, 11.02016926, -30.28354263, -73.34112549, 78.10628510, 14.78233242, -16.60232162, 0.75033945, -0.63268268, -0.00864529, 0.19138646, 0.00094399, -0.00685901, -0.01020083, 0.00000000, 0.00000000, 0.00000000, 0.00000000
1, 0.7200, 261, 0.25420356, -0.93928510, -0.18907504, 3.88503599, -0.94771808, 1.99676991, 11.02016926, -30.28354263, -73.34112549, 78.11566162, 14.77696037, -16.60365486, 0.75029433, -0.63274270, -0.00858600, 0.19136758, 0.00085333, -0.00691509, -0.01005097, 0.00000000, 0.00000000, 0.00000000, 0.00000000
1, 0.7225, 262, 0.24949338, -0.94325417, -0.18814859, 4.17954493, -1.71323645, 2.40506768, 11.02016926, -30.28354263, -73.34112549, 78.12533569, 14.77019501, -16.60670662, 0.75024694, -0.63280445, -0.00850730, 0.19135265, 0.00544934, -0.00300902, -0.01082389, 0.00000000, 0.00000000, 0.00000000, 0.00000000
1, 0.7250, 263, 0.24949338, -0.94325417, -0.18814859, 4.17954493, -1.71323645, 2.40506768, 10.58170128, -29.96199989, -73.48728180, 78.13500977, 14.76343346, -16.60976410, 0.75019956, -0.63286614, -0.00842861, 0.19133772, 0.00533520, -0.00307208, -0.01067031, 0.00000000, 0.00000000, 0.00000000, 0.00000000
1, 0.7275, 264, 0.23885316, -0.94220161, -0.17919026, 4.03646517, -1.78491557, 2.47450304, 10.58170128, -29.96199989, -73.48728180, 78.14427948, 14.75646114, -16.61296654, 0.75015450, -0.63292521, -0.00834838, 0.19132261, 0.01585776, -0.00418723, -0.01948177, 0.00000000, 0.00000000, 0.00000000, 0.00000000
1, 0.7300, 265, 0.23702595, -0.94265825, -0.18224846, 3.46198845, -1.85952461, 2.47536898, 10.58170128, -29.96199989, -73.48728180, 78.16883850, 14.73322296, -16.61080742, 0.75006068, -0.63307941, -0.00816247, 0.19118768, 0.01729271, -0.00391656, -0.01603917, 0.00000000, 0.00000000, 0.00000000, 0.00000000
1, 0.7325, 266, 0.23628758, -0.94334358, -0.18616775, 2.74468946, -2.07175493, 2.33495545, 10.58170128, -29.96199989, -73.48728180, 78.17468262, 14.72644806, -16.61480904, 0.75003284, -0.63311613, -0.00808487, 0.19117858, 0.01791675, -0.00328100, -0.01202944, 0.00000000, 0.00000000, 0.00000000, 0.00000000
1, 0.7350, 267, 0.23835093, -0.94528311, -0.18742365, 2.02980375, -2.56203413, 2.26070404, 10.58170128, -29.96199989, -73.48728180, 78.17841339, 14.71960449, -16.62009430, 0.75001472, -0.63313907, -0.00800325, 0.19117732, 0.01573786, -0.00138402, -0.01071811, 0.00000000, 0.00000000, 0.00000000, 0.00000000
1, 0.7375, 268, 0.23748824, -0.94389683, -0.19008900, 1.38276279, -2.56697869, 2.19281197, 11.31248188, -29.78661156, -73.66267395, 78.18051910, 14.71292210, -16.62542725, 0.75000525, -0.63315135, -0.00792519, 0.19117714, 0.01648778, -0.00280660, -0.00802411, 0.00000000, 0.00000000, 0.00000000, 0.00000000
1, 0.7400, 269, 0.23407578, -0.94371676, -0.19521154, 0.80644989, -2.43277669, 2.12657547, 11.31248188, -29.78661156, -73.66267395, 78.18125153, 14.70647144, -16.63045692, 0.75000340, -0.63315475, -0.00785265, 0.19117609, 0.01979133, -0.00301719, -0.00289528, 0.00000000, 0.00000000, 0.00000000, 0.00000000
1, 0.7425, 270, 0.23080444, -0.94834185, -0.19955257, 0.22887737, -2.15900111, 1.99229538, 11.31248188, -29.78661156, -73.66267395, 78.18071747, 14.70049286, -16.63486099, 0.75000888, -0.63314986, -0.00778885, 0.19117334, 0.02296174, 0.00158382, 0.00143141, 0.00000000, 0.00000000, 0.00000000, 0.00000000
1, 0.7450, 271, 0.22596537, -0.95215905, -0.20070086, -0.42068332, -1.88479793, 1.78831613, 11.31248188, -29.78661156, -73.66267395, 78.17870331, 14.69515228, -16.63868332, 0.75002241, -0.63313544, -0.00773506, 0.19117005, 0.02771064, 0.00538492, 0.00254151, 0.00000000, 0.00000000, 0.00000000, 0.00000000
1, 0.7475, 272, 0.22319463, -0.95539200, -0.19903392, -0.99930263, -1.47364569, 1.72584283, 11.31248188, -29.78661156, -73.66267395, 78.17548370, 14.69017410, -16.64149666, 0.75004369, -0.63311327, -0.00769127, 0.19116201, 0.03039736, 0.00860733, 0.00081700, 0.00000000, 0.00000000, 0.00000000, 0.00000000
1, 0.7500, 273, 0.21933757, -0.95743746, -0.19478042, -1.57698190, -1.19877160, 1.52163804, 10.84478188, -30.13738632, -72.99035645, 78.17098236, 14.68583679, -16.64372444, 0.75007194, -0.63308269, -0.00765721, 0.19115339, 0.03418119, 0.01064962, -0.00351490, 0.00000000, 0.00000000, 0.00000000, 0.00000000
1, 0.7525, 274, 0.21340778, -0.95762622, -0.19208282, -2.01194429, -0.78517795, 1.38878798, 10.84478188, -30.13738632, -72.99035645, 78.16563416, 14.68203640, -16.64497566, 0.75010574, -0.63304681, -0.00763358, 0.19114120, 0.04004682, 0.01084042, -0.00630421, 0.00000000, 0.00000000, 0.00000000, 0.00000000
1, 0.7550, 275, 0.20879751, -0.95436043, -0.18982384, -2.37167168, -0.78523964, 1.18014264, 10.84478188, -30.13738632, -72.99035645, 78.15935516, 14.67874718, -16.64633369, 0.75014359, -0.63300490, -0.00761432, 0.19113234, 0.04460153, 0.00758207, -0.00866988, 0.00000000, 0.00000000, 0.00000000, 0.00000000
1, 0.7575, 276, 0.20624848, -0.95290428, -0.18930753, -2.87332630, -0.99545556, 1.03905153, 10.84478188, -30.13738632, -72.99035645, 78.15167236, 14.67569256, -16.64830208, 0.75018770, -0.63295382, -0.00759566, 0.19112857, 0.04709899, 0.00613946, -0.00931600, 0.00000000, 0.00000000, 0.00000000, 0.00000000
1, 0.7600, 277, 0.20480032, -0.95366412, -0.18821642, -3.30352497, -1.20060563, 0.61803538, 10.84478188, -30.13738632, -72.99035645, 78.14273071, 14.67356205, -16.65101051, 0.75023615, -0.63289493, -0.00758125, 0.19113451, 0.04851121, 0.00692111, -0.01055674, 0.00000000, 0.00000000, 0.00000000, 0.00000000
1, 0.7625, 278, 0.20321579, -0.95060742, -0.18755539, -3.59079456, -1.26923347, 0.40822345, 10.46477604, -29.49429893, -73.19496918, 78.13299561, 14.67191219, -16.65400314, 0.75028759, -0.63283086, -0.00756981, 0.19114473, 0.05006786, 0.00389099, -0.01138018, 0.00000000, 0.00000000, 0.00000000, 0.00000000
1, 0.7650, 279, 0.20405526, -0.94923413, -0.18875806, -3.73498368, -1.26618230, 0.12897582, 10.46477604, -29.49429893, -73.19496918, 78.12285614, 14.67094421, -16.65713882, 0.75033993, -0.63276440, -0.00756288, 0.19115949, 0.04921204, 0.00254875, -0.01034597, 0.00000000, 0.00000000, 0.00000000, 0.00000000
1, 0.7675, 280, 0.20125429, -0.94568098, -0.18882012, -4.16706371, -1.19877648, -0.00857806, 10.46477604, -29.49429893, -73.19496918, 78.11167145, 14.67034817, -16.66017532, 0.75039768, -0.63269126, -0.00756075, 0.19117552, 0.05200298, -0.00096816, -0.01046920, 0.00000000, 0.00000000, 0.00000000, 0.00000000
1, 0.7700, 281, 0.19881220, -0.94101650, -0.18911031, -4.67149401, -1.06390297, -0.07504047, 10.46477604, -29.49429893, -73.19496918, 78.09930420, 14.66998482, -16.66290283, 0.75046194, -0.63261032, -0.00756385, 0.19119063, 0.05443890, -0.00559115, -0.01038367, 0.00000000, 0.00000000, 0.00000000, 0.00000000
1, 0.7725, 282, 0.19805686, -0.93557531, -0.19159161, -5.24503040, -1.27479029, -0.21590565, 10.46477604, -29.49429893, -73.19496918, 78.08534241, 14.66985416, -16.66624069, 0.75053364, -0.63251907, -0.00756784, 0.19121090, 0.05519204, -0.01098424, -0.00813307, 0.00000000, 0.00000000, 0.00000000, 0.00000000
1, 0.7750, 283, 0.19707796, -0.93190813, -0.19043368, -5.82018948, -1.27906334, -0.28402373, 10.26015759, -29.26045036, -72.52265167, 78.06993866, 14.66988850, -16.66962624, 0.75061297, -0.63241833, -0.00757509, 0.19123223, 0.05617152, -0.01459748, -0.00954564, 0.00000000, 0.00000000, 0.00000000, 0.00000000
1, 0.8075, 284, 0.06844597, -0.99544615, -0.15607230, -2.91077161, -4.45248127, 5.04882145, 10.17246437, -29.61122513, -73.34112549, 77.83013916, 14.54371929, -16.73057175, 0.75204051, -0.63081378, -0.00678625, 0.19095297, 0.18267265, 0.04924287, -0.04798362, 0.00000000, 0.00000000, 0.00000000, 0.00000000
1, 0.8100, 285, 0.03712691, -1.01202333, -0.11581457, 0.61467344, -4.83280802, 4.89226198, 10.17246437, -29.61122513, -73.34112549, 77.82928467, 14.52921581, -16.74011040, 0.75205314, -0.63080442, -0.00663707, 0.19093931, 0.21374665, 0.06576103, -0.08826893, 0.00000000, 0.00000000, 0.00000000, 0.00000000
1, 0.8125, 286, -0.02089775, -1.03971636, -0.09791227, 5.51159191, -5.82900906, 5.07256746, 10.17246437, -29.61122513, -73.34112549, 77.84006500, 14.51375103, -16.75206757, 0.75199926, -0.63087130, -0.00644866, 0.19093710, 0.27151000, 0.09334946, -0.10600740, 0.00000000, 0.00000000, 0.00000000, 0.00000000
1, 0.8150, 287, -0.03767611, -1.05413592, -0.09223319, 10.70362091, -7.85010099, 4.53860950, 10.72785759, -29.64045525, -73.39958954, 77.86247253, 14.49852753, -16.76941872, 0.75187194, -0.63101482, -0.00621282, 0.19097219, 0.28803122, 0.10762432, -0.11133032, 0.00000000, 0.00000000, 0.00000000, 0.00000000
1, 0.8175, 288, -0.03767611, -1.05413592, -0.09223319, 10.70362091, -7.85010099, 4.53860950, 10.72785759, -29.64045525, -73.39958954, 77.88488770, 14.48330975, -16.78677559, 0.75174457, -0.63115829, -0.00597697, 0.19100727, 0.28777409, 0.10747984, -0.11097389, 0.00000000, 0.00000000, 0.00000000, 0.00000000
1, 0.8200, 289, -0.05028446, -1.07563937, -0.07982803, 19.59027863, -13.36037540, 3.45568204, 10.72785759, -29.64045525, -73.39958954, 77.92591095, 14.46786499, -16.81863594, 0.75149083, -0.63142431, -0.00562863, 0.19113709, 0.30012143, 0.12877205, -0.12271543, 0.00000000, 0.00000000, 0.00000000, 0.00000000
1, 0.8225, 290, -0.05028446, -1.07563937, -0.07982803, 19.59027863, -13.36037540, 3.45568204, 10.72785759, -29.64045525, -73.39958954, 77.96692657, 14.45244122, -16.85050201, 0.75123680, -0.63169008, -0.00528030, 0.19126682, 0.29986066, 0.12856156, -0.12205147, 0.00000000, 0.00000000, 0.00000000, 0.00000000
1, 0.8250, 291, -0.08008844, -1.06784511, -0.06706133, 19.29427528, -12.57947636, 2.06843662, 10.72785759, -29.64045525, -73.39958954, 78.00751495, 14.44083786, -16.88115692, 0.75098097, -0.63195401, -0.00496511, 0.19140850, 0.32946861, 0.12057510, -0.13415778, 0.00000000, 0.00000000, 0.00000000, 0.00000000
1, 0.8275, 292, -0.08758516, -1.06638122, -0.06005832, 16.92120552, -12.71814060, 0.67551142, 10.58170128, -30.63431740, -72.55188751, 78.04190826, 14.43259048, -16.91291428, 0.75075173, -0.63217813, -0.00467676, 0.19157459, 0.33682585, 0.11895543, -0.14059958, 0.00000000, 0.00000000, 0.00000000, 0.00000000
1, 0.8300, 293, -0.09491766, -1.07054329, -0.04642090, 14.11752892, -12.93116760, -0.64707494, 10.58170128, -30.63431740, -72.55188751, 78.11470032, 14.33794785, -16.92834282, 0.75047964, -0.63262635, -0.00383093, 0.19117971, 0.34255841, 0.12246183, -0.15311769, 0.00000000, 0.00000000, 0.00000000, 0.00000000
1, 0.8325, 294, -0.10200348, -1.07460058, -0.03143822, 11.30949497, -12.65623665, -2.17285061, 10.58170128, -30.63431740, -72.55188751, 78.13477325, 14.33675289, -16.96145248, 0.75031543, -0.63275850, -0.00360653, 0.19139087, 0.34962401, 0.12644419, -0.16776924, 0.00000000, 0.00000000, 0.00000000, 0.00000000
1, 0.8350, 295, -0.10630022, -1.07465136, -0.01200080, 7.99310207, -11.76286793, -3.68857837, 10.58170128, -30.63431740, -72.55188751, 78.14691162, 14.33973122, -16.99311447, 0.75019068, -0.63283992, -0.00343152, 0.19161426, 0.35397112, 0.12646535, -0.18700308, 0.00000000, 0.00000000, 0.00000000, 0.00000000
1, 0.8375, 296, -0.11029473, -1.08318210, 0.01598219, 4.46006060, -10.79788208, -5.48238707, 10.58170128, -30.63431740, -72.55188751, 78.15059662, 14.34760094, -17.02328682, 0.75010687, -0.63286734, -0.00331184, 0.19185337, 0.35809863, 0.13501674, -0.21491818, 0.00000000, 0.00000000, 0.00000000, 0.00000000
1, 0.8400, 297, -0.13521735, -1.10215926, 0.04555889, 0.85304296, -9.55881405, -7.13235807, 10.78631973, -29.58199310, -72.63957977, 78.14580536, 14.36014462, -17.05120850, 0.75006592, -0.63284075, -0.00325032, 0.19210213, 0.38323349, 0.15406361, -0.24456306, 0.00000000, 0.00000000, 0.00000000, 0.00000000
1, 0.8425, 298, -0.15959854, -1.10996759, 0.06797361, -2.67500329, -9.08837795, -8.30342865, 10.78631973, -29.58199310, -72.63957977, 78.13233185, 14.37578964, -17.07856750, 0.75006860, -0.63275826, -0.00322745, 0.19236326, 0.40787905, 0.16198504, -0.26718673, 0.00000000, 0.00000000, 0.00000000, 0.00000000
1, 0.8450, 299, -0.17238861, -1.10954022, 0.08560278, -6.18967962, -10.21150303, -9.42621231, 10.78631973, -29.58199310, -72.63957977, 78.10919952, 14.39359570, -17.10936356, 0.75011522, -0.63261348, -0.00321645, 0.19265804, 0.42097026, 0.16171375, -0.28518265, 0.00000000, 0.00000000, 0.00000000, 0.00000000
1, 0.8475, 300, -0.17775741, -1.11124754, 0.10880515, -9.54869652, -12.78507805, -10.70905304, 10.78631973, -29.58199310, -72.63957977, 78.07588196, 14.41319656, -17.14735985, 0.75020289, -0.63240266, -0.00319516, 0.19300908, 0.42667031, 0.16362062, -0.30891860, 0.00000000, 0.00000000, 0.00000000, 0.00000000
1, 0.8500, 301, -0.18300202, -1.11320901, 0.13261436, -12.84155273, -14.72935104, -12.33327579, 10.78631973, -29.58199310, -72.63957977, 78.03287506, 14.43573952, -17.19114494, 0.75032902, -0.63212955, -0.00317832, 0.19341323, 0.43229610, 0.16582844, -0.33341882, 0.00000000, 0.00000000, 0.00000000, 0.00000000
1, 0.8525, 302, -0.19103701, -1.11832356, 0.15247069, -15.99615574, -16.04584503, -14.15925884, 10.90324497, -29.93276787, -72.52265167, 77.98087311, 14.46203041, -17.23926163, 0.75049084, -0.63179886, -0.00317842, 0.19386514, 0.44077539, 0.17123756, -0.35411102, 0.00000000, 0.00000000, 0.00000000, 0.00000000
1, 0.8550, 303, -0.20006117, -1.12736130, 0.16261540, -19.43986702, -17.22216034, -16.26215553, 10.90324497, -29.93276787, -72.52265167, 77.91920471, 14.49280262, -17.29151344, 0.75069106, -0.63140643, -0.00320281, 0.19436739, 0.45031959, 0.18062404, -0.36524689, 0.00000000, 0.00000000, 0.00000000, 0.00000000
1, 0.8575, 304, -0.20640691, -1.13897812, 0.17344832, -22.59143639, -18.94968605, -18.37348175, 10.90324497, -29.93276787, -72.52265167, 77.84824371, 14.52776623, -17.34931946, 0.75092548, -0.63095462, -0.00324135, 0.19492772, 0.45725608, 0.19264227, -0.37722003, 0.00000000, 0.00000000, 0.00000000, 0.00000000
1, 0.8600, 305, -0.21942256, -1.15049279, 0.18356329, -25.45065308, -21.23062515, -20.35338974, 10.90324497, -29.93276787, -72.52265167, 77.76837158, 14.56629372, -17.41401863, 0.75119048, -0.63044572, -0.00328194, 0.19555153, 0.47092265, 0.20460689, -0.38861835, 0.00000000, 0.00000000, 0.00000000, 0.00000000
1, 0.8625, 306, -0.22880344, -1.16149890, 0.19367860, -27.73388100, -23.64247131, -22.47683525, 10.90324497, -29.93276787, -72.52265167, 77.68089294, 14.60863686, -17.48604393, 0.75147736, -0.62988847, -0.00332195, 0.19624300, 0.48101872, 0.21610892, -0.40013778, 0.00000000, 0.00000000, 0.00000000, 0.00000000
1, 0.8650, 307, -0.23675720, -1.16984236, 0.19857724, -29.36429596, -26.74174881, -24.54179382, 10.72785759, -29.46506882, -72.69804382, 77.58700562, 14.65424919, -17.56711388, 0.75177729, -0.62929040, -0.00334650, 0.19701059, 0.48974258, 0.22498828, -0.40654188, 0.00000000, 0.00000000, 0.00000000, 0.00000000
1, 0.8675, 308, -0.24170627, -1.17612875, 0.19812454, -30.13018799, -30.04287720, -26.47243881, 10.72785759, -29.46506882, -72.69804382, 77.48873138, 14.70266151, -17.65769196, 0.75207907, -0.62866485, -0.00334670, 0.19785495, 0.49550921, 0.23184189, -0.40766340, 0.00000000, 0.00000000, 0.00000000, 0.00000000
1, 0.8700, 309, -0.24389385, -1.18241560, 0.18996777, -30.46264076, -33.55208206, -28.12755585, 10.72785759, -29.46506882, -72.69804382, 77.38703156, 14.75305653, -17.75815773, 0.75237733, -0.62801772, -0.00331345, 0.19877426, 0.49854743, 0.23872036, -0.40113348, 0.00000000, 0.00000000, 0.00000000, 0.00000000
1, 0.8725, 310, -0.23772182, -1.19421828, 0.17474414, -30.36368942, -37.05836105, -29.71410942, 10.72785759, -29.46506882, -72.69804382, 77.28297424, 14.80521870, -17.86848831, 0.75266665, -0.62735599, -0.00324395, 0.19976741, 0.49325556, 0.25113457, -0.38757211, 0.00000000, 0.00000000, 0.00000000, 0.00000000
1, 0.8750, 311, -0.22622603, -1.19989932, 0.16302487, -29.83050919, -40.84415054, -30.88622475, 10.72785759, -29.46506882, -72.69804382, 77.17751312, 14.85795784, -17.98916054, 0.75294256, -0.62668544, -0.00312600, 0.20083134, 0.48264968, 0.25743878, -0.37753624, 0.00000000, 0.00000000, 0.00000000, 0.00000000
1, 0.8775, 312, -0.25565517, -1.15325153, 0.18420625, -30.16776276, -43.67087173, -31.90261841, 11.13709450, -29.28968048, -73.25343323, 77.06908417, 14.91137886, -18.11767960, 0.75321746, -0.62599576, -0.00297699, 0.20195022, 0.51297975, 0.21143204, -0.40044716, 0.00000000, 0.00000000, 0.00000000, 0.00000000
1, 0.8800, 313, -0.27756444, -1.15177512, 0.15971203, -31.08339882, -46.27876663, -33.96324921, 11.13709450, -29.28968048, -73.25343323, 76.97906494, 14.93892956, -18.24615479, 0.75343448, -0.62541747, -0.00262176, 0.20293535, 0.53535378, 0.21041727, -0.37740445, 0.00000000, 0.00000000, 0.00000000, 0.00000000
1, 0.8825, 314, -0.26979694, -1.17249417, 0.14092712, -30.47831154, -50.25402451, -36.25721359, 11.13709450, -29.28968048, -73.25343323, 76.86466980, 14.99878979, -18.39406013, 0.75369179, -0.62469119, -0.00242536, 0.20421503, 0.52859563, 0.23183566, -0.36043733, 0.00000000, 0.00000000, 0.00000000, 0.00000000
1, 0.8850, 315, -0.27254659, -1.18683743, 0.13716944, -28.43674088, -54.07737732, -38.55381393, 11.13709450, -29.28968048, -73.25343323, 76.75232697, 15.06178284, -18.55312347, 0.75390953, -0.62397993, -0.00218829, 0.20558423, 0.53240705, 0.24688864, -0.35845816, 0.00000000, 0.00000000, 0.00000000, 0.00000000
1, 0.8875, 316, -0.27939877, -1.20285130, 0.13718273, -25.32386971, -57.05979919, -40.84251404, 11.13709450, -29.28968048, -73.25343323, 76.64523315, 15.12832737, -18.72124100, 0.75407279, -0.62330461, -0.00191936, 0.20703125, 0.54038048, 0.26361191, -0.36015809, 0.00000000, 0.00000000, 0.00000000, 0.00000000
1, 0.8900, 317, -0.28890494, -1.21771812, 0.14210689, -21.70970345, -59.76496887, -42.84933472, 11.69248772, -30.40046692, -73.57497406, 76.54483795, 15.19789505, -18.89755440, 0.75417590, -0.62267482, -0.00161688, 0.20854768, 0.55105853, 0.27917981, -0.36665380, 0.00000000, 0.00000000, 0.00000000, 0.00000000
1, 0.8950, 318, -0.31231803, -1.22660553, 0.16291453, -15.90262604, -67.31972504, -47.86656189, 11.69248772, -30.40046692, -73.57497406, 76.35764313, 15.34730911, -19.28289604, 0.75421852, -0.62150961, -0.00088727, 0.21184781, 0.57698733, 0.28947335, -0.39036465, 0.00000000, 0.00000000, 0.00000000, 0.00000000
1, 0.8975, 319, -0.32297873, -1.22631788, 0.16514033, -13.99954033, -71.89504242, -50.87230682, 11.69248772, -30.40046692, -73.57497406, 76.26629639, 15.42834377, -19.49523926, 0.75417322, -0.62094480, -0.00045877, 0.21365908, 0.58901179, 0.28991425, -0.39399526, 0.00000000, 0.00000000, 0.00000000, 0.00000000
1, 0.9000, 320, -0.32755348, -1.23264587, 0.16774116, -11.66234589, -76.87517548, -54.30459595, 11.69248772, -30.40046692, -73.57497406, 76.17652130, 15.51442528, -19.72246170, 0.75407726, -0.62039274, 0.00001608, 0.21559343, 0.59503448, 0.29699117, -0.39796710, 0.00000000, 0.00000000, 0.00000000, 0.00000000
1, 0.9025, 321, -0.32885504, -1.24525976, 0.16388479, -8.60292053, -82.20027161, -57.39423752, 11.57556248, -29.84507370, -73.51651764, 76.08988190, 15.60447788, -19.96526146, 0.75392187, -0.61986303, 0.00055110, 0.21764967, 0.59785002, 0.31036329, -0.39542389, 0.00000000, 0.00000000, 0.00000000, 0.00000000
1, 0.9050, 322, -0.32372838, -1.26331031, 0.15541074, -4.75467730, -87.24541473, -60.20289230, 11.57556248, -29.84507370, -73.51651764, 76.00853729, 15.69796085, -20.22277069, 0.75369716, -0.61936963, 0.00114939, 0.21981917, 0.59429455, 0.32917064, -0.38817075, 0.00000000, 0.00000000, 0.00000000, 0.00000000
1, 0.9075, 323, -0.31792533, -1.28018141, 0.13338941, -0.18907326, -92.01569366, -62.45063782, 11.57556248, -29.84507370, -73.51651764, 75.93447113, 15.79366684, -20.49397278, 0.75339574, -0.61892503, 0.00181764, 0.22208880, 0.59009910, 0.34678322, -0.36724645, 0.00000000, 0.00000000, 0.00000000, 0.00000000
1, 0.9100, 324, -0.31014013, -1.30509174, 0.11539569, 4.44328547, -96.09950256, -64.26966095, 11.57556248, -29.84507370, -73.51651764, 75.86834717, 15.89097977, -20.77687073, 0.75301820, -0.61853307, 0.00255088, 0.22444193, 0.58394802, 0.37241352, -0.35021657, 0.00000000, 0.00000000, 0.00000000, 0.00000000
1, 0.9125, 325, -0.30905446, -1.31875491, 0.09966523, 8.49559689, -99.69414520, -66.70961761, 11.57556248, -29.84507370, -73.51651764, 75.80890656, 15.99170876, -21.07062912, 0.75256866, -0.61818600, 0.00333007, 0.22688186, 0.58455265, 0.38678908, -0.33533517, 0.00000000, 0.00000000, 0.00000000, 0.00000000
1, 0.9150, 326, -0.30905446, -1.31875491, 0.09966523, 8.49559689, -99.69414520, -66.70961761, 11.57556248, -29.84507370, -73.51651764, 75.74889374, 16.09214211, -21.36464691, 0.75211412, -0.61783475, 0.00410925, 0.22932030, 0.58623731, 0.38750595, -0.33619195, 0.00000000, 0.00000000, 0.00000000, 0.00000000
1, 0.9175, 327, -0.30416846, -1.33838892, 0.09006764, 17.47466087, -107.82049561, -68.73754883, 12.45249939, -29.99123001, -73.86728668, 75.70471191, 16.19222832, -21.68070412, 0.75152200, -0.61758578, 0.00503931, 0.23189904, 0.58302939, 0.40779322, -0.32719254, 0.00000000, 0.00000000, 0.00000000, 0.00000000
1, 0.9200, 328, -0.30416846, -1.33838892, 0.09006764, 17.47466087, -107.82049561, -68.73754883, 12.45249939, -29.99123001, -73.86728668, 75.65992737, 16.29207420, -21.99700356, 0.75092393, -0.61733186, 0.00596934, 0.23447590, 0.58470231, 0.40845102, -0.32779908, 0.00000000, 0.00000000, 0.00000000, 0.00000000
1, 0.9225, 329, -0.31321943, -1.35749400, 0.08197305, 19.22472954, -111.09922028, -70.60617065, 12.45249939, -29.99123001, -73.86728668, 75.61624908, 16.39418030, -22.32302856, 0.75028616, -0.61708510, 0.00693682, 0.23712541, 0.59546334, 0.42822337, -0.32028875, 0.00000000, 0.00000000, 0.00000000, 0.00000000
1, 0.9250, 330, -0.32080787, -1.37383842, 0.07905004, 17.65421104, -112.61855316, -71.81061554, 12.45249939, -29.99123001, -73.86728668, 75.56669617, 16.49800110, -22.65393066, 0.74965680, -0.61679965, 0.00790478, 0.23981331, 0.60478967, 0.44527102, -0.31804147, 0.00000000, 0.00000000, 0.00000000, 0.00000000
1, 0.9275, 331, -0.33514914, -1.39580977, 0.08057601, 14.42898560, -114.07529449, -73.56832123, 12.45249939, -29.99123001, -73.86728668, 75.50704956, 16.60486412, -22.98993874, 0.74905473, -0.61644876, 0.00885595, 0.24254800, 0.62091875, 0.46800607, -0.32040098, 0.00000000, 0.00000000, 0.00000000, 0.00000000
1, 0.9300, 332, -0.35226661, -1.42196083, 0.08118829, 10.05248070, -115.53070068, -76.09159851, 12.97866154, -31.16047859, -72.81496429, 75.44233704, 16.70359230, -23.32831955, 0.74848115, -0.61605877, 0.00986220, 0.24525569, 0.63968718, 0.49490678, -0.32193705, 0.00000000, 0.00000000, 0.00000000, 0.00000000
1, 0.9325, 333, -0.37325606, -1.45094466, 0.08090977, 4.52502012, -116.98804474, -79.17066193, 12.97866154, -31.16047859, -72.81496429, 75.35337067, 16.82139206, -23.67601204, 0.74796802, -0.61552083, 0.01073261, 0.24811870, 0.66264528, 0.52483916, -0.32294777, 0.00000000, 0.00000000, 0.00000000, 0.00000000
1, 0.9350, 334, -0.38903835, -1.47927761, 0.07977515, -1.93670738, -118.58271790, -82.87799072, 12.97866154, -31.16047859, -72.81496429, 75.24554443, 16.94657707, -24.03063202, 0.74751383, -0.61486369, 0.01154419, 0.25106272, 0.68051815, 0.55424279, -0.32339394, 0.00000000, 0.00000000, 0.00000000, 0.00000000
1, 0.9375, 335, -0.40120995, -1.50385416, 0.07502472, -8.68298912, -120.65376282, -87.29025269, 12.97866154, -31.16047859, -72.81496429, 75.11753082, 17.08040237, -24.39394188, 0.74711788, -0.61408001, 0.01229328, 0.25410560, 0.69492334, 0.58002651, -0.32053411, 0.00000000, 0.00000000, 0.00000000, 0.00000000
1, 0.9400, 336, -0.40821186, -1.52120638, 0.06536422, -16.00900078, -122.23889923, -92.11366272, 12.97866154, -31.16047859, -72.81496429, 74.96804047, 17.22400856, -24.76513290, 0.74678469, -0.61316264, 0.01296284, 0.25724754, 0.70432007, 0.59873623, -0.31309137, 0.00000000, 0.00000000, 0.00000000, 0.00000000
1, 0.9425, 337, -0.41369769, -1.53225136, 0.04492158, -23.54945946, -124.02828979, -97.28884125, 13.85559750, -30.02046204, -73.16574097, 74.79617310, 17.37794495, -25.14509773, 0.74651408, -0.61210674, 0.01354985, 0.26049682, 0.71237117, 0.61129957, -0.29520524, 0.00000000, 0.00000000, 0.00000000, 0.00000000
1, 0.9450, 338, -0.41506553, -1.54302061, 0.02374156, -30.37178993, -125.74060822, -102.53526306, 13.85559750, -30.02046204, -73.16574097, 74.60359955, 17.54225159, -25.53385544, 0.74629492, -0.61092383, 0.01405575, 0.26385316, 0.71647453, 0.62374485, -0.27689070, 0.00000000, 0.00000000, 0.00000000, 0.00000000
1, 0.9475, 339, -0.41717243, -1.54974771, 0.00335811, -36.62147522, -127.16954041, -107.84966278, 13.85559750, -30.02046204, -73.16574097, 74.39178467, 17.71708870, -25.93092728, 0.74611801, -0.60962433, 0.01447792, 0.26731345, 0.72148955, 0.63230407, -0.25965527, 0.00000000, 0.00000000, 0.00000000, 0.00000000
1, 0.9500, 340, -0.42097777, -1.55393291, -0.01478339, -42.37187195, -128.17395020, -113.43969727, 13.85559750, -30.02046204, -73.16574097, 74.16207123, 17.90324211, -26.33561516, 0.74597400, -0.60821843, 0.01480835, 0.27087608, 0.72838813, 0.63848019, -0.24491870, 0.00000000, 0.00000000, 0.00000000, 0.00000000
1, 0.9525, 341, -0.42418575, -1.55505133, -0.03226817, -47.83633041, -129.03279114, -119.30845642, 13.85559750, -30.02046204, -73.16574097, 73.91503906, 18.10130692, -26.74796486, 0.74585617, -0.60671121, 0.01504236, 0.27454326, 0.73488390, 0.64175355, -0.23108250, 0.00000000, 0.00000000, 0.00000000, 0.00000000
1, 0.9550, 342, -0.42341039, -1.55281150, -0.05117608, -53.59277344, -129.40525818, -125.44941711, 14.49868488, -31.04355431, -72.99035645, 73.65007782, 18.31209946, -27.16718292, 0.74576539, -0.60510010, 0.01516643, 0.27831265, 0.73760331, 0.64184415, -0.21607178, 0.00000000, 0.00000000, 0.00000000, 0.00000000
1, 0.9575, 343, -0.41622159, -1.55158722, -0.07438957, -59.63774490, -129.70678711, -131.86824036, 14.49868488, -31.04355431, -72.99035645, 73.36622620, 18.53614998, -27.59354591, 0.74570239, -0.60338038, 0.01517370, 0.28218761, 0.73412442, 0.64313918, -0.19701418, 0.00000000, 0.00000000, 0.00000000, 0.00000000
1, 0.9600, 344, -0.40083557, -1.54553580, -0.10585538, -66.04029083, -130.22048950, -138.21882629, 14.49868488, -31.04355431, -72.99035645, 73.06221771, 18.77295494, -28.02782631, 0.74567050, -0.60154432, 0.01506603, 0.28616953, 0.72265428, 0.63980520, -0.16997954, 0.00000000, 0.00000000, 0.00000000, 0.00000000
1, 0.9625, 345, -0.38075620, -1.53205490, -0.13953882, -72.15619659, -130.53256226, -144.00808716, 14.49868488, -31.04355431, -72.99035645, 72.73882294, 19.02110863, -28.46938705, 0.74566787, -0.59959674, 0.01484898, 0.29024607, 0.70667267, 0.62923539, -0.14098778, 0.00000000, 0.00000000, 0.00000000, 0.00000000
1, 0.9650, 346, -0.36093760, -1.51147389, -0.17115787, -77.62969971, -130.22207642, -149.37136841, 14.49868488, -31.04355431, -72.99035645, 72.39802551, 19.27986145, -28.91659927, 0.74568731, -0.59755123, 0.01452175, 0.29440147, 0.69112027, 0.61175096, -0.11428559, 0.00000000, 0.00000000, 0.00000000, 0.00000000
1, 0.9675, 347, -0.34102473, -1.48181796, -0.20117180, -82.38905334, -129.28718567, -154.37882996, 15.75562668, -30.80970383, -73.86728668, 72.04205322, 19.54866982, -29.36788750, 0.74572045, -0.59542269, 0.01408315, 0.29862112, 0.67563224, 0.58536941, -0.08937523, 0.00000000, 0.00000000, 0.00000000, 0.00000000
1, 0.9700, 348, -0.32487214, -1.45119977, -0.23091891, -86.36153412, -127.86248016, -159.24234009, 15.75562668, -30.80970383, -73.86728668, 71.67310333, 19.82744980, -29.82217026, 0.74575686, -0.59322667, 0.01353198, 0.30289578, 0.66406083, 0.55819672, -0.06487922, 0.00000000, 0.00000000, 0.00000000, 0.00000000
1, 0.9725, 349, -0.30871800, -1.41852844, -0.25806844, -89.47319794, -126.15823364, -163.75515747, 15.75562668, -30.80970383, -73.86728668, 71.29348755, 20.11547852, -30.27870369, 0.74578643, -0.59097838, 0.01287380, 0.30721551, 0.65263128, 0.52913094, -0.04308918, 0.00000000, 0.00000000, 0.00000000, 0.00000000
1, 0.9750, 350, -0.29365015, -1.38418496, -0.28213522, -92.07804108, -124.86693573, -168.13536072, 15.75562668, -30.80970383, -73.86728668, 70.90397644, 20.41202164, -30.73865891, 0.74580240, -0.58868319, 0.01212037, 0.31158304, 0.64241886, 0.49854940, -0.02447522, 0.00000000, 0.00000000, 0.00000000, 0.00000000
1, 0.9775, 351, -0.27603385, -1.34862995, -0.30411130, -94.75453186, -123.57849884, -172.37550354, 15.75562668, -30.80970383, -73.86728668, 70.50427246, 20.71666336, -31.20218658, 0.74580538, -0.58633947, 0.01127301, 0.31599587, 0.62978071, 0.46691549, -0.00804666, 0.00000000, 0.00000000, 0.00000000, 0.00000000
1, 0.9800, 352, -0.25987613, -1.31088495, -0.32495111, -97.35926056, -122.28828430, -176.68576050, 17.45103836, -29.61122513, -74.30575562, 70.09632111, 21.01995277, -31.66822052, 0.74581122, -0.58395118, 0.01039644, 0.32040396, 0.61856920, 0.43318838, 0.00716517, 0.00000000, 0.00000000, 0.00000000, 0.00000000
1, 0.9825, 353, -0.24237721, -1.27607334, -0.34657177, -99.89408875, -120.72375488, -180.78271484, 17.45103836, -29.61122513, -74.30575562, 69.67655182, 21.34055710, -32.13882446, 0.74578255, -0.58151495, 0.00935920, 0.32490170, 0.60628772, 0.40262431, 0.02306628, 0.00000000, 0.00000000, 0.00000000, 0.00000000
1, 0.9850, 354, -0.22319934, -1.23718214, -0.36923316, -102.85778809, -119.44129181, -184.81217957, 17.45103836, -29.61122513, -74.30575562, 69.24536133, 21.66845322, -32.61359787, 0.74574262, -0.57902437, 0.00822872, 0.32944039, 0.59243435, 0.36815405, 0.03990704, 0.00000000, 0.00000000, 0.00000000, 0.00000000
1, 0.9875, 355, -0.20314302, -1.19937789, -0.38433677, -105.31754303, -118.22556305, -188.70429993, 17.45103836, -29.61122513, -74.30575562, 68.80381775, 22.00314522, -33.09283066, 0.74568486, -0.57648671, 0.00701137, 0.33401808, 0.57780039, 0.33493924, 0.04910892, 0.00000000, 0.00000000, 0.00000000, 0.00000000
1, 0.9900, 356, -0.18333231, -1.15780616, -0.39644945, -107.41546631, -117.28453064, -192.53137207, 17.45103836, -29.61122513, -74.30575562, 68.35238647, 22.34413147, -33.57741165, 0.74560380, -0.57390547, 0.00571509, 0.33863673, 0.56350088, 0.29812330, 0.05524975, 0.00000000, 0.00000000, 0.00000000, 0.00000000
1, 0.9925, 357, -0.16594332, -1.11710453, -0.40869269, -108.79378510, -116.40821838, -196.22181702, 18.56182289, -29.84507370, -76.58579254, 67.89264679, 22.69091606, -34.06763840, 0.74549049, -0.57129151, 0.00434800, 0.34329447, 0.55170310, 0.26233453, 0.06147842, 0.00000000, 0.00000000, 0.00000000, 0.00000000
1, 0.9950, 358, -0.14588323, -1.07774055, -0.42108405, -109.37760925, -115.94322968, -199.71061707, 18.56182289, -29.84507370, -76.58579254, 67.42610931, 23.04253578, -34.56457138, 0.74533540, -0.56865436, 0.00292536, 0.34799263, 0.53729761, 0.22802824, 0.06783666, 0.00000000, 0.00000000, 0.00000000, 0.00000000
1, 0.9975, 359, -0.12496679, -1.04106987, -0.43400723, -108.51694489, -116.23192596, -202.86463928, 18.56182289, -29.84507370, -76.58579254, 66.95554352, 23.39738464, -35.06996536, 0.74512237, -0.56601131, 0.00147472, 0.35273466, 0.52207267, 0.19653422, 0.07474911, 0.00000000, 0.00000000, 0.00000000, 0.00000000
1, 1.0000, 360, -0.10478102, -1.00535810, -0.44889873, -106.71598816, -117.14162445, -205.61051941, 18.56182289, -29.84507370, -76.58579254, 66.48270416, 23.75380707, -35.58513260, 0.74484217, -0.56337261, 0.00001878, 0.35752127, 0.50758839, 0.16609734, 0.08367616, 0.00000000, 0.00000000, 0.00000000, 0.00000000
1, 1.0025, 361, -0.08229937, -0.96996939, -0.46624383, -103.47734070, -117.97525024, -207.94042969, 18.56182289, -29.84507370, -76.58579254, 66.01127625, 24.11082458, -36.10956192, 0.74448001, -0.56076193, -0.00142699, 0.36234447, 0.49080214, 0.13605130, 0.09515578, 0.00000000, 0.00000000, 0.00000000, 0.00000000
1, 1.0050, 362, -0.05749213, -0.93319887, -0.51082259, -99.15888214, -118.94167328, -209.99592590, 20.81262779, -29.64045525, -77.69657898, 65.54379272, 24.46758842, -36.64337540, 0.74402475, -0.55819559, -0.00284803, 0.36720133, 0.47167054, 0.10466793, 0.13400346, 0.00000000, 0.00000000, 0.00000000, 0.00000000
1, 1.0075, 363, -0.00116838, -0.84212005, -0.53434968, -93.97504425, -120.11872101, -211.35769653, 20.81262779, -29.64045525, -77.69657898, 65.08243561, 24.82226944, -37.18636703, 0.74347138, -0.55568582, -0.00422492, 0.37208304, 0.42097312, 0.01899105, 0.15195876, 0.00000000, 0.00000000, 0.00000000, 0.00000000
1, 1.0100, 364, 0.02849847, -0.79361999, -0.56360638, -88.50537872, -121.14913177, -213.06809998, 20.81262779, -29.64045525, -77.69657898, 64.62780762, 25.17576981, -37.73860168, 0.74281389, -0.55323833, -0.00556130, 0.37699348, 0.39689812, -0.02409298, 0.17581350, 0.00000000, 0.00000000, 0.00000000, 0.00000000
1, 1.0125, 365, 0.02849847, -0.79361999, -0.56360638, -88.50537872, -121.14913177, -213.06809998, 20.81262779, -29.64045525, -77.69657898, 64.16807556, 25.52526283, -38.29553604, 0.74213237, -0.55077285, -0.00689750, 0.38189170, 0.40241042, -0.01860452, 0.17040294, 0.00000000, 0.00000000, 0.00000000, 0.00000000
1, 1.0150, 366, 0.09041587, -0.69918615, -0.61373258, -73.46808624, -122.79909515, -213.76908875, 20.81262779, -29.64045525, -77.69657898, 63.73875427, 25.87060356, -38.86204910, 0.74124092, -0.54851937, -0.00808991, 0.38681120, 0.34592420, -0.10772544, 0.21561044, 0.00000000, 0.00000000, 0.00000000, 0.00000000
1, 1.0175, 367, 0.09041587, -0.69918615, -0.61373258, -73.46808624, -122.79909515, -213.76908875, 21.66033363, -29.99123001, -77.93042755, 63.30437851, 26.21208382, -39.43308640, 0.74032617, -0.54624867, -0.00928207, 0.39171851, 0.35127908, -0.10234636, 0.21068013, 0.00000000, 0.00000000, 0.00000000, 0.00000000
1, 1.0200, 368, 0.13837215, -0.61491632, -0.64528960, -64.92184448, -121.88063812, -214.27412415, 21.66033363, -29.99123001, -77.93042755, 62.88706970, 26.55191422, -40.00696945, 0.73928195, -0.54410678, -0.01042175, 0.39661255, 0.30863625, -0.18131343, 0.23761117, 0.00000000, 0.00000000, 0.00000000, 0.00000000
1, 1.0225, 369, 0.16362372, -0.57713950, -0.66541433, -60.75187302, -121.97688293, -214.49891663, 21.66033363, -29.99123001, -77.93042755, 62.47492218, 26.88839722, -40.58581161, 0.73816341, -0.54201436, -0.01152614, 0.40150002, 0.28863025, -0.21379545, 0.25323924, 0.00000000, 0.00000000, 0.00000000, 0.00000000
1, 1.0250, 370, 0.19628045, -0.54421848, -0.68746161, -56.43908691, -121.93549347, -214.58239746, 21.66033363, -29.99123001, -77.93042755, 62.06853867, 27.22141838, -41.16906738, 0.73697060, -0.53997529, -0.01259407, 0.40637726, 0.26114982, -0.24143738, 0.27092549, 0.00000000, 0.00000000, 0.00000000, 0.00000000
1, 1.0275, 371, 0.23292999, -0.50943178, -0.70973283, -52.19854355, -121.82774353, -214.52484131, 21.66033363, -29.99123001, -77.93042755, 61.66790009, 27.55076599, -41.75634003, 0.73570597, -0.53798884, -0.01362506, 0.41124105, 0.22960429, -0.27096498, 0.28896809, 0.00000000, 0.00000000, 0.00000000, 0.00000000
1, 1.0300, 372, 0.27259848, -0.47603804, -0.73679721, -48.39095688, -121.45365143, -214.04261780, 23.20958710, -29.72814941, -79.59661102, 61.26104736, 27.87295723, -42.35184097, 0.73442197, -0.53597307, -0.01461695, 0.41610530, 0.19491401, -0.29905838, 0.31175879, 0.00000000, 0.00000000, 0.00000000, 0.00000000
1, 1.0325, 373, 0.31588948, -0.43627086, -0.76132756, -44.87487411, -120.53494263, -213.13244629, 23.20958710, -29.72814941, -79.59661102, 60.87117767, 28.19349098, -42.94266129, 0.73303950, -0.53408402, -0.01558499, 0.42090914, 0.15656102, -0.33361873, 0.33230481, 0.00000000, 0.00000000, 0.00000000, 0.00000000
1, 1.0350, 374, 0.35639331, -0.39482367, -0.78387135, -41.86870575, -118.72853088, -211.71896362, 23.20958710, -29.72814941, -79.59661102, 60.48699570, 28.50962830, -43.53125763, 0.73161298, -0.53224450, -0.01653740, 0.42565814, 0.12091300, -0.36989170, 0.35098678, 0.00000000, 0.00000000, 0.00000000, 0.00000000
1, 1.0375, 375, 0.39328584, -0.35482883, -0.80056447, -39.36943054, -116.44545746, -210.08755493, 23.20958710, -29.72814941, -79.59661102, 60.10804749, 28.82159233, -44.11602783, 0.73015088, -0.53045142, -0.01748361, 0.43034324, 0.08879787, -0.40474242, 0.36393321, 0.00000000, 0.00000000, 0.00000000, 0.00000000
1, 1.0400, 376, 0.42874864, -0.31554741, -0.81078911, -37.30270004, -114.02684021, -208.52284241, 23.20958710, -29.72814941, -79.59661102, 59.73350906, 29.12981796, -44.69666290, 0.72865832, -0.52869982, -0.01843036, 0.43496424, 0.05804124, -0.43890250, 0.37051547, 0.00000000, 0.00000000, 0.00000000, 0.00000000
1, 1.0425, 377, 0.45976892, -0.28106338, -0.81362402, -36.03165054, -110.99467468, -206.80732727, 24.93422890, -28.14966393, -80.12277222, 59.36234283, 29.43487740, -45.27132416, 0.72714639, -0.52698356, -0.01939296, 0.43951172, 0.03166497, -0.46827817, 0.36979944, 0.00000000, 0.00000000, 0.00000000, 0.00000000
1, 1.0450, 378, 0.48389196, -0.24242091, -0.80856055, -35.19062805, -108.10610199, -205.02238464, 24.93422890, -28.14966393, -80.12277222, 58.99349976, 29.73656464, -45.84020615, 0.72562134, -0.52529508, -0.02037228, 0.44398633, 0.01212076, -0.50181979, 0.36126044, 0.00000000, 0.00000000, 0.00000000, 0.00000000
1, 1.0475, 379, 0.50487113, -0.20479374, -0.80228424, -35.21134949, -105.36077118, -203.44642639, 24.93422890, -28.14966393, -80.12277222, 58.62459183, 30.03523827, -46.40389633, 0.72409177, -0.52361995, -0.02137668, 0.44839302, -0.00433874, -0.53433377, 0.35155389, 0.00000000, 0.00000000, 0.00000000, 0.00000000
1, 1.0500, 380, 0.52827924, -0.16511446, -0.79255986, -35.51393890, -103.30938721, -201.94886780, 24.93422890, -28.14966393, -80.12277222, 58.25412369, 30.33025742, -46.96416855, 0.72256100, -0.52194762, -0.02239879, 0.45274118, -0.02329588, -0.56888181, 0.33842188, 0.00000000, 0.00000000, 0.00000000, 0.00000000
1, 1.0525, 381, 0.55949157, -0.13019116, -0.77437055, -36.53036499, -101.88568115, -200.59736633, 24.93422890, -28.14966393, -80.12277222, 57.87949371, 30.62113190, -47.52276611, 0.72103649, -0.52026099, -0.02343744, 0.45704010, -0.05013289, -0.59863955, 0.31681216, 0.00000000, 0.00000000, 0.00000000, 0.00000000
1, 1.0550, 382, 0.60026801, -0.09226646, -0.75664359, -38.77103043, -100.13377380, -198.81779480, 26.60040855, -28.14966393, -80.94124603, 57.49847031, 30.90741158, -48.07817078, 0.71953654, -0.51854467, -0.02450522, 0.46127874, -0.08661592, -0.63134980, 0.29562175, 0.00000000, 0.00000000, 0.00000000, 0.00000000
1, 1.0575, 383, 0.63686371, -0.04612384, -0.74758053, -41.29978943, -98.31532288, -197.03637695, 26.60040855, -28.14966393, -80.94124603, 57.11052322, 31.18918800, -48.63017654, 0.71806490, -0.51679552, -0.02560625, 0.46545640, -0.11899832, -0.67222446, 0.28304708, 0.00000000, 0.00000000, 0.00000000, 0.00000000
1, 1.0600, 384, 0.67103177, -0.00361383, -0.74321163, -43.53970337, -96.57112122, -194.76731873, 26.60040855, -28.14966393, -80.94124603, 56.71676636, 31.46535301, -49.17814636, 0.71662354, -0.51501799, -0.02673116, 0.46956658, -0.14904904, -0.70942998, 0.27512765, 0.00000000, 0.00000000, 0.00000000, 0.00000000
1, 1.0625, 385, 0.70508987, 0.03691170, -0.73765081, -45.05565643, -95.37958527, -192.15840149, 26.60040855, -28.14966393, -80.94124603, 56.31873322, 31.73448753, -49.72280884, 0.71520865, -0.51321852, -0.02786029, 0.47361082, -0.17910635, -0.74463844, 0.26598969, 0.00000000, 0.00000000, 0.00000000, 0.00000000
1, 1.0650, 386, 0.73238903, 0.07340993, -0.72773874, -45.63026810, -94.94643402, -189.21316528, 26.60040855, -28.14966393, -80.94124603, 55.91825867, 31.99487495, -50.26532745, 0.71381426, -0.51140481, -0.02896852, 0.47759318, -0.20254588, -0.77583593, 0.25248682, 0.00000000, 0.00000000, 0.00000000, 0.00000000
