SensorId, TimeStamp (s), FrameNumber, AccX (g), AccY (g), AccZ (g), GyroX (deg/s), GyroY (deg/s), GyroZ (deg/s), MagX (uT), MagY (uT), MagZ (uT), EulerX (deg), EulerY (deg), EulerZ (deg), QuatW, QuatX, QuatY, QuatZ, LinAccX (g), LinAccY (g), LinAccZ (g), Pressure (kPa), Altitude (m), Temperature (degC), HeaveMotion (m)
1, -0.0000, 0, -0.32551739, -0.66351765, -0.65522599, -6.40675306, -7.49652481, 1.19842672, -14.44022179, -8.76936531, -82.31510925, 47.01887131, -19.37186623, -35.91825485, 0.88057429, -0.32648394, 0.26800758, 0.21487015, -0.00618044, -0.02664263, 0.01206559, 0.00000000, 0.00000000, 0.00000000, 0.00000000
1, 0.0025, 1, -0.33157682, -0.66633809, -0.65770072, -7.13210630, -6.61303711, 1.84223878, -14.44022179, -8.76936531, -82.31510925, 47.00419235, -19.38650703, -35.92774582, 0.88059503, -0.32630518, 0.26811430, 0.21492356, -0.00036207, -0.02359546, 0.01442135, 0.00000000, 0.00000000, 0.00000000, 0.00000000
1, 0.0050, 2, -0.33424419, -0.67143631, -0.66315001, -7.79004097, -5.23982143, 2.21271038, -14.44022179, -8.76936531, -82.31510925, 46.98676300, -19.39948463, -35.93389893, 0.88063020, -0.32611802, 0.26819417, 0.21496391, 0.00209168, -0.01824648, 0.01971209, 0.00000000, 0.00000000, 0.00000000, 0.00000000
1, 0.0075, 3, -0.33195072, -0.67465729, -0.66931385, -8.30431938, -3.86416483, 2.51280570, -14.44022179, -8.76936531, -82.31510925, 46.96698380, -19.41066551, -35.93684387, 0.88067847, -0.32592568, 0.26824734, 0.21499172, -0.00038591, -0.01475602, 0.02568215, 0.00000000, 0.00000000, 0.00000000, 0.00000000
1, 0.0100, 4, -0.32990167, -0.67290437, -0.67087984, -8.45699024, -2.76100230, 2.73808408, -14.84945869, -10.58170128, -82.25665283, 46.94597244, -19.42038155, -35.93723679, 0.88073516, -0.32573417, 0.26828015, 0.21500820, -0.00259489, -0.01623166, 0.02703375, 0.00000000, 0.00000000, 0.00000000, 0.00000000
1, 0.0125, 5, -0.32784402, -0.67179209, -0.67062265, -8.53615475, -1.86378241, 2.89038944, -14.84945869, -10.58170128, -82.25665283, 46.92409134, -19.42883873, -35.93561935, 0.88079858, -0.32554451, 0.26829648, 0.21501590, -0.00479171, -0.01706201, 0.02654708, 0.00000000, 0.00000000, 0.00000000, 0.00000000
1, 0.0150, 6, -0.32420459, -0.66960615, -0.66754168, -8.61463642, -1.03689873, 3.11167860, -14.84945869, -10.58170128, -82.25665283, 46.90135193, -19.43629456, -35.93199158, 0.88086826, -0.32535589, 0.26829809, 0.21501389, -0.00855383, -0.01896071, 0.02322227, 0.00000000, 0.00000000, 0.00000000, 0.00000000
1, 0.0175, 7, -0.31862146, -0.66839802, -0.66423529, -8.83399868, -0.55754578, 3.32871604, -14.84945869, -10.58170128, -82.25665283, 46.87762070, -19.44331932, -35.92703247, 0.88094318, -0.32516399, 0.26829097, 0.21500556, -0.01425258, -0.01987207, 0.01965869, 0.00000000, 0.00000000, 0.00000000, 0.00000000
1, 0.0200, 8, -0.31546426, -0.66816348, -0.66240513, -8.97791195, -0.49404520, 3.60980797, -14.84945869, -10.58170128, -82.25665283, 46.85330963, -19.45075226, -35.92144775, 0.88102090, -0.32496798, 0.26828396, 0.21499224, -0.01753211, -0.01980162, 0.01756608, 0.00000000, 0.00000000, 0.00000000, 0.00000000
1, 0.0225, 9, -0.31206852, -0.66742760, -0.66117889, -9.26411724, -0.57365823, 4.09924412, -15.25869656, -9.85092068, -81.90587616, 46.82804489, -19.45920753, -35.91512299, 0.88110250, -0.32476324, 0.26828060, 0.21497174, -0.02106703, -0.02021724, 0.01607013, 0.00000000, 0.00000000, 0.00000000, 0.00000000
1, 0.0250, 10, -0.31108448, -0.67123681, -0.66099483, -9.40719604, -0.64533716, 4.16868019, -15.25869656, -9.85092068, -81.90587616, 46.80241394, -19.46791458, -35.90880585, 0.88118494, -0.32455495, 0.26827842, 0.21495123, -0.02219433, -0.01608253, 0.01561320, 0.00000000, 0.00000000, 0.00000000, 0.00000000
1, 0.0275, 11, -0.31035197, -0.67319298, -0.66151506, -9.48164272, -0.30311638, 4.38338470, -15.25869656, -9.85092068, -81.90587616, 46.77625656, -19.47641945, -35.90143204, 0.88127083, -0.32434559, 0.26827082, 0.21492460, -0.02306679, -0.01379556, 0.01585353, 0.00000000, 0.00000000, 0.00000000, 0.00000000
1, 0.0300, 12, -0.30912900, -0.67480600, -0.66007590, -9.34133911, 0.11365189, 4.38857746, -15.25869656, -9.85092068, -81.90587616, 46.75017166, -19.48421669, -35.89324570, 0.88135815, -0.32414085, 0.26825589, 0.21489410, -0.02441806, -0.01185548, 0.01413286, 0.00000000, 0.00000000, 0.00000000, 0.00000000
1, 0.0325, 13, -0.30961555, -0.67625540, -0.66205227, -8.98319054, 0.25658283, 4.31940413, -15.25869656, -9.85092068, -81.90587616, 46.71795273, -19.48313904, -35.88238525, 0.88146991, -0.32392165, 0.26815686, 0.21488994, -0.02391378, -0.01004726, 0.01571888, 0.00000000, 0.00000000, 0.00000000, 0.00000000
1, 0.0350, 14, -0.30841023, -0.67549497, -0.66326505, -8.62897205, 0.88307810, 4.32674170, -15.34638977, -9.35398960, -81.55509949, 46.69319153, -19.48949814, -35.87281418, 0.88155621, -0.32373452, 0.26812997, 0.21485095, -0.02522373, -0.01050133, 0.01666051, 0.00000000, 0.00000000, 0.00000000, 0.00000000
1, 0.0375, 15, -0.30600527, -0.67249733, -0.66579026, -8.34291840, 1.02753460, 4.11794519, -15.34638977, -9.35398960, -81.55509949, 46.66917038, -19.49522209, -35.86333466, 0.88164049, -0.32355481, 0.26810020, 0.21481329, -0.02772290, -0.01320357, 0.01892114, 0.00000000, 0.00000000, 0.00000000, 0.00000000
1, 0.0400, 16, -0.30092451, -0.67025077, -0.66649944, -7.91299629, 1.17223561, 3.97862220, -15.34638977, -9.35398960, -81.55509949, 46.64621735, -19.50044823, -35.85383224, 0.88172185, -0.32338482, 0.26806867, 0.21477477, -0.03288961, -0.01516879, 0.01937652, 0.00000000, 0.00000000, 0.00000000, 0.00000000
1, 0.0425, 17, -0.29814002, -0.66913331, -0.66636580, -7.69504404, 0.89729959, 3.97418165, -15.34638977, -9.35398960, -81.55509949, 46.62398529, -19.50613213, -35.84486389, 0.88180000, -0.32321775, 0.26804340, 0.21473700, -0.03576765, -0.01601106, 0.01899970, 0.00000000, 0.00000000, 0.00000000, 0.00000000
1, 0.0450, 18, -0.29849735, -0.66746467, -0.66279578, -7.33285904, 0.55556756, 3.89842391, -15.34638977, -9.35398960, -81.55509949, 46.60292435, -19.51226234, -35.83669281, 0.88187313, -0.32305646, 0.26802582, 0.21470094, -0.03551114, -0.01741576, 0.01520235, 0.00000000, 0.00000000, 0.00000000, 0.00000000
1, 0.0475, 19, -0.30406430, -0.66861767, -0.66133565, -6.89627361, -0.06464022, 3.95852685, -14.99561501, -8.53551579, -82.25665283, 46.58331299, -19.51956367, -35.82960510, 0.88193989, -0.32290033, 0.26802266, 0.21466556, -0.03006428, -0.01601017, 0.01353711, 0.00000000, 0.00000000, 0.00000000, 0.00000000
1, 0.0500, 20, -0.30913827, -0.66943789, -0.65718317, -6.74879313, -0.54466468, 3.74171543, -14.99561501, -8.53551579, -82.25665283, 46.56451035, -19.52729225, -35.82382965, 0.88200182, -0.32274604, 0.26802787, 0.21463686, -0.02511746, -0.01494462, 0.00919098, 0.00000000, 0.00000000, 0.00000000, 0.00000000
1, 0.0525, 21, -0.31495458, -0.66935253, -0.65643680, -6.38519812, -1.09081376, 3.45336080, -14.99561501, -8.53551579, -82.25665283, 46.54714584, -19.53543282, -35.81962967, 0.88205653, -0.32259786, 0.26804328, 0.21461543, -0.01943508, -0.01479900, 0.00826997, 0.00000000, 0.00000000, 0.00000000, 0.00000000
1, 0.0550, 22, -0.31821886, -0.66964483, -0.65423495, -6.02286291, -1.49738920, 3.09696293, -14.99561501, -8.53551579, -82.25665283, 46.53116226, -19.54362869, -35.81686401, 0.88210464, -0.32245684, 0.26806569, 0.21460159, -0.01630557, -0.01429111, 0.00591022, 0.00000000, 0.00000000, 0.00000000, 0.00000000
1, 0.0575, 23, -0.32197535, -0.66894060, -0.65311670, -5.58712864, -2.10880899, 2.59766722, -14.99561501, -8.53551579, -82.25665283, 46.51696777, -19.55196762, -35.81618118, 0.88214374, -0.32232425, 0.26809838, 0.21459912, -0.01268625, -0.01479942, 0.00465602, 0.00000000, 0.00000000, 0.00000000, 0.00000000
1, 0.0600, 24, -0.32077232, -0.66562676, -0.65233529, -5.15071154, -2.79056501, 2.16735554, -14.49868488, -8.00935364, -82.31510925, 46.50456619, -19.56069946, -35.81759644, 0.88217378, -0.32219940, 0.26814321, 0.21460715, -0.01403287, -0.01793587, 0.00376177, 0.00000000, 0.00000000, 0.00000000, 0.00000000
1, 0.0625, 25, -0.32233998, -0.66651535, -0.65087926, -5.14479446, -3.54778409, 1.87730801, -14.49868488, -8.00935364, -82.31510925, 46.49283981, -19.57020950, -35.82099915, 0.88219798, -0.32207280, 0.26820061, 0.21462606, -0.01262162, -0.01687420, 0.00220412, 0.00000000, 0.00000000, 0.00000000, 0.00000000
1, 0.0650, 26, -0.32197332, -0.66652578, -0.65002483, -5.35294294, -4.44988632, 1.86575580, -14.49868488, -8.00935364, -82.31510925, 46.48118973, -19.58125496, -35.82614899, 0.88221830, -0.32193804, 0.26827431, 0.21465273, -0.01316989, -0.01668501, 0.00125521, 0.00000000, 0.00000000, 0.00000000, 0.00000000
1, 0.0675, 27, -0.32269371, -0.66813225, -0.64968139, -5.56004429, -5.48936558, 1.78239703, -14.49868488, -8.00935364, -82.31510925, 46.46973801, -19.59393501, -35.83345413, 0.88223356, -0.32179487, 0.26836643, 0.21468952, -0.01265803, -0.01489509, 0.00082630, 0.00000000, 0.00000000, 0.00000000, 0.00000000
1, 0.0700, 28, -0.32499579, -0.67166048, -0.65302998, -5.69987726, -5.97427225, 1.70633864, -14.49868488, -8.00935364, -82.31510925, 46.45830154, -19.60731316, -35.84183121, 0.88224655, -0.32164720, 0.26846668, 0.21473199, -0.01057592, -0.01118052, 0.00409252, 0.00000000, 0.00000000, 0.00000000, 0.00000000
1, 0.0725, 29, -0.32912570, -0.67176610, -0.65558928, -5.91216850, -6.39061356, 1.63144696, -14.93715286, -8.65244102, -81.87664032, 46.44664001, -19.62127686, -35.85113907, 0.88225824, -0.32149389, 0.26857343, 0.21478006, -0.00667557, -0.01088351, 0.00656927, 0.00000000, 0.00000000, 0.00000000, 0.00000000
1, 0.0750, 30, -0.33372748, -0.67544013, -0.65808004, -5.76573515, -6.73326254, 1.48644185, -14.93715286, -8.65244102, -81.87664032, 46.43566513, -19.63557053, -35.86137009, 0.88226616, -0.32134265, 0.26868644, 0.21483245, -0.00230879, -0.00702447, 0.00898701, 0.00000000, 0.00000000, 0.00000000, 0.00000000
1, 0.0775, 31, -0.33665717, -0.67633969, -0.66493088, -5.33109188, -7.14355993, 1.40951729, -14.93715286, -8.65244102, -81.87664032, 46.42609406, -19.65043068, -35.87253571, 0.88226825, -0.32119831, 0.26880884, 0.21488665, 0.00037667, -0.00595325, 0.01578397, 0.00000000, 0.00000000, 0.00000000, 0.00000000
1, 0.0800, 32, -0.33896843, -0.67595392, -0.66687542, -4.89713144, -7.48352242, 1.26360893, -14.93715286, -8.65244102, -81.87664032, 46.41791153, -19.66561699, -35.88461685, 0.88226461, -0.32106155, 0.26893878, 0.21494348, 0.00243831, -0.00618178, 0.01769257, 0.00000000, 0.00000000, 0.00000000, 0.00000000
1, 0.0825, 33, -0.33994985, -0.67288226, -0.66707075, -4.53631353, -7.68458176, 1.04988289, -14.93715286, -8.65244102, -81.87664032, 46.40347290, -19.68114471, -35.89527130, 0.88228095, -0.32087886, 0.26905549, 0.21500283, 0.00316453, -0.00902373, 0.01777893, 0.00000000, 0.00000000, 0.00000000, 0.00000000
1, 0.0850, 34, -0.34237304, -0.67035407, -0.66409439, -4.03335571, -7.67768478, 0.90845227, -14.14791012, -7.74627304, -82.16895294, 46.39780426, -19.69602585, -35.90837097, 0.88226837, -0.32075989, 0.26919070, 0.21506277, 0.00534320, -0.01142430, 0.01479542, 0.00000000, 0.00000000, 0.00000000, 0.00000000
1, 0.0875, 35, -0.34224448, -0.67183715, -0.66350639, -3.75065565, -7.11890125, 0.77522522, -14.14791012, -7.74627304, -82.16895294, 46.39256668, -19.70970345, -35.92064285, 0.88225645, -0.32064974, 0.26931557, 0.21511969, 0.00498986, -0.00982356, 0.01420063, 0.00000000, 0.00000000, 0.00000000, 0.00000000
1, 0.0900, 36, -0.34224448, -0.67183715, -0.66350639, -3.75065565, -7.11890125, 0.77522522, -14.14791012, -7.74627304, -82.16895294, 46.38733292, -19.72338295, -35.93291473, 0.88224447, -0.32053959, 0.26944041, 0.21517661, 0.00476512, -0.00970596, 0.01419390, 0.00000000, 0.00000000, 0.00000000, 0.00000000
1, 0.0925, 37, -0.35132745, -0.67542654, -0.66476464, -3.68894124, -5.87415123, 0.93178248, -14.14791012, -7.74627304, -82.16895294, 46.38134766, -19.73520088, -35.94250107, 0.88224012, -0.32043555, 0.26954266, 0.21522143, 0.01365394, -0.00599837, 0.01542896, 0.00000000, 0.00000000, 0.00000000, 0.00000000
1, 0.0950, 38, -0.35132745, -0.67542654, -0.66476464, -3.68894124, -5.87415123, 0.93178248, -14.14791012, -7.74627304, -82.16895294, 46.37536621, -19.74701691, -35.95209122, 0.88223571, -0.32033151, 0.26964492, 0.21526626, 0.01345986, -0.00588012, 0.01540595, 0.00000000, 0.00000000, 0.00000000, 0.00000000
1, 0.0975, 39, -0.35146257, -0.67924726, -0.67276573, -3.34537888, -4.06182861, 0.39571396, -15.31715870, -9.09090900, -82.25665283, 46.36940002, -19.75473976, -35.95917511, 0.88223702, -0.32024571, 0.26971015, 0.21530671, 0.01346812, -0.00195879, 0.02336747, 0.00000000, 0.00000000, 0.00000000, 0.00000000
1, 0.1000, 40, -0.34769869, -0.68228346, -0.67416406, -3.28069305, -3.29075646, -0.15356243, -15.31715870, -9.09090900, -82.25665283, 46.36343002, -19.76013947, -35.96578217, 0.88223988, -0.32016799, 0.26975700, 0.21535197, 0.00961554, 0.00116807, 0.02471673, 0.00000000, 0.00000000, 0.00000000, 0.00000000
1, 0.1025, 41, -0.34488314, -0.68686497, -0.67094064, -2.78392768, -2.58708954, -0.56528485, -15.31715870, -9.09090900, -82.25665283, 46.35850143, -19.76357841, -35.97179031, 0.88224143, -0.32010558, 0.26978976, 0.21539730, 0.00674349, 0.00582016, 0.02144879, 0.00000000, 0.00000000, 0.00000000, 0.00000000
1, 0.1050, 42, -0.33832672, -0.68712032, -0.66814744, -2.28669190, -1.95156145, -1.04787314, -15.31715870, -9.09090900, -82.25665283, 46.35469818, -19.76504898, -35.97746277, 0.88224095, -0.32005855, 0.26980925, 0.21544455, 0.00016293, 0.00612492, 0.01861650, 0.00000000, 0.00000000, 0.00000000, 0.00000000
1, 0.1075, 43, -0.33130395, -0.68535984, -0.66862363, -2.00578475, -1.24771190, -1.59876800, -15.31715870, -9.09090900, -82.25665283, 46.35149002, -19.76431084, -35.98279572, 0.88224012, -0.32002351, 0.26981267, 0.21549584, -0.00684771, 0.00439769, 0.01905149, 0.00000000, 0.00000000, 0.00000000, 0.00000000
1, 0.1100, 44, -0.32198879, -0.68184876, -0.67042196, -1.86392069, -1.10020411, -2.08681178, -15.31715870, -9.09090900, -81.73048401, 46.34883881, -19.76243782, -35.98873901, 0.88223690, -0.31999475, 0.26981056, 0.21555468, -0.01613212, 0.00090861, 0.02081067, 0.00000000, 0.00000000, 0.00000000, 0.00000000
1, 0.1125, 45, -0.31219268, -0.67650229, -0.67145997, -1.64361835, -1.71583521, -2.44558048, -14.82022762, -8.94475269, -81.73048401, 46.34735489, -19.76097298, -35.99651718, 0.88222682, -0.31996942, 0.26981878, 0.21562341, -0.02590422, -0.00442731, 0.02182508, 0.00000000, 0.00000000, 0.00000000, 0.00000000
1, 0.1150, 46, -0.30421177, -0.67311513, -0.67362404, -1.21059883, -1.91951931, -2.44975781, -14.82022762, -8.94475269, -81.73048401, 46.34709549, -19.75985527, -36.00469971, 0.88221234, -0.31995147, 0.26983291, 0.21569106, -0.03386673, -0.00781620, 0.02398151, 0.00000000, 0.00000000, 0.00000000, 0.00000000
1, 0.1175, 47, -0.30169168, -0.66742682, -0.67513061, -0.92343599, -1.84979284, -2.30987048, -14.82022762, -8.94475269, -81.73048401, 46.34742355, -19.75886917, -36.01249313, 0.88219702, -0.31993860, 0.26984805, 0.21575387, -0.03637064, -0.01351249, 0.02548790, 0.00000000, 0.00000000, 0.00000000, 0.00000000
1, 0.1200, 48, -0.30001092, -0.66638350, -0.67878407, -0.63742656, -1.64159143, -2.16810203, -14.82022762, -8.94475269, -81.73048401, 46.34823227, -19.75778008, -36.01961899, 0.88218164, -0.31993136, 0.26986149, 0.21581081, -0.03803349, -0.01456964, 0.02914662, 0.00000000, 0.00000000, 0.00000000, 0.00000000
1, 0.1225, 49, -0.29868650, -0.66682559, -0.68184841, -0.42319211, -1.43515980, -1.95618296, -14.82022762, -8.94475269, -81.73048401, 46.34931946, -19.75671959, -36.02596283, 0.88216692, -0.31992796, 0.26987347, 0.21586096, -0.03934050, -0.01414442, 0.03221954, 0.00000000, 0.00000000, 0.00000000, 0.00000000
1, 0.1250, 50, -0.29698524, -0.66610795, -0.67988580, 0.15102701, -1.29460871, -1.74633372, -14.67407131, -8.47705364, -82.31510925, 46.35162735, -19.75579453, -36.03165817, 0.88214999, -0.31993505, 0.26988691, 0.21590272, -0.04102656, -0.01489210, 0.03028065, 0.00000000, 0.00000000, 0.00000000, 0.00000000
1, 0.1275, 51, -0.29528195, -0.66346025, -0.67532748, 0.58310640, -1.36201453, -1.60877991, -14.67407131, -8.47705364, -82.31510925, 46.35496902, -19.75523186, -36.03722382, 0.88213032, -0.31994936, 0.26990464, 0.21593975, -0.04272062, -0.01758004, 0.02575970, 0.00000000, 0.00000000, 0.00000000, 0.00000000
1, 0.1300, 52, -0.29454455, -0.65998465, -0.66879928, 0.87545925, -1.91542637, -1.47735953, -14.67407131, -8.47705364, -82.31510925, 46.35931396, -19.75586510, -36.04361343, 0.88210607, -0.31996590, 0.26993534, 0.21597642, -0.04346839, -0.02110219, 0.01928580, 0.00000000, 0.00000000, 0.00000000, 0.00000000
1, 0.1325, 53, -0.29537788, -0.65665823, -0.66092598, 0.88118190, -2.54405713, -1.13620198, -14.67407131, -8.47705364, -82.31510925, 46.33650208, -19.72050095, -36.04028702, 0.88218522, -0.31990439, 0.26962367, 0.21613331, -0.04205412, -0.02432085, 0.01099742, 0.00000000, 0.00000000, 0.00000000, 0.00000000
1, 0.1350, 54, -0.29838136, -0.65738761, -0.65384358, 0.24411345, -3.66449237, -0.72967219, -14.67407131, -8.47705364, -82.31510925, 46.33994293, -19.72550964, -36.04866791, 0.88215846, -0.31989610, 0.26969028, 0.21617149, -0.03913292, -0.02360916, 0.00397629, 0.00000000, 0.00000000, 0.00000000, 0.00000000
1, 0.1375, 55, -0.30089766, -0.66115278, -0.64925259, -0.60817373, -4.79133558, -0.04276552, -14.93715286, -9.76322746, -82.13972473, 46.34156036, -19.73370361, -36.05794907, 0.88213432, -0.31986204, 0.26977932, 0.21620932, -0.03675124, -0.01982743, -0.00056219, 0.00000000, 0.00000000, 0.00000000, 0.00000000
1, 0.1400, 56, -0.30464125, -0.66219705, -0.64620596, -1.60260046, -6.12613583, 0.57184583, -14.93715286, -9.76322746, -82.13972473, 46.34116745, -19.74530983, -36.06867218, 0.88211215, -0.31979892, 0.26989365, 0.21625049, -0.03319833, -0.01872921, -0.00356621, 0.00000000, 0.00000000, 0.00000000, 0.00000000
1, 0.1425, 57, -0.31263557, -0.66237974, -0.64460379, -2.59897065, -7.25102758, 1.04942954, -14.93715286, -9.76322746, -82.13972473, 46.33873367, -19.75972366, -36.08068466, 0.88209254, -0.31970853, 0.27002826, 0.21629620, -0.02544076, -0.01845736, -0.00513864, 0.00000000, 0.00000000, 0.00000000, 0.00000000
1, 0.1450, 58, -0.32185408, -0.66094434, -0.64480734, -3.88271618, -8.44344807, 1.24727654, -14.93715286, -9.76322746, -82.13972473, 46.33374023, -19.77655411, -36.09462357, 0.88207573, -0.31958660, 0.27018112, 0.21635395, -0.01649866, -0.01976437, -0.00492585, 0.00000000, 0.00000000, 0.00000000, 0.00000000
1, 0.1475, 59, -0.32914037, -0.66128784, -0.64895236, -4.73538589, -9.62964153, 1.30391884, -14.93715286, -9.76322746, -82.13972473, 46.32735825, -19.79553604, -36.11073685, 0.88205814, -0.31944233, 0.27035317, 0.21642391, -0.00952414, -0.01926732, -0.00077921, 0.00000000, 0.00000000, 0.00000000, 0.00000000
1, 0.1500, 60, -0.33583209, -0.66073358, -0.65552890, -5.73747873, -10.12590218, 1.44034517, -15.46331501, -8.36012840, -81.61356354, 46.31871033, -19.81562042, -36.12755203, 0.88204521, -0.31927562, 0.27053097, 0.21650061, -0.00316221, -0.01963765, 0.00577670, 0.00000000, 0.00000000, 0.00000000, 0.00000000
1, 0.1525, 61, -0.34397760, -0.65970474, -0.66136193, -6.59444094, -10.76149082, 1.71428788, -15.46331501, -8.36012840, -81.61356354, 46.30817032, -19.83730125, -36.14508820, 0.88203561, -0.31908771, 0.27071881, 0.21658148, 0.00462732, -0.02045405, 0.01157320, 0.00000000, 0.00000000, 0.00000000, 0.00000000
1, 0.1550, 62, -0.35201055, -0.65633833, -0.66728163, -7.23712587, -11.25439548, 1.84958494, -15.46331501, -8.36012840, -81.61356354, 46.29627228, -19.86008453, -36.16331863, 0.88202828, -0.31888434, 0.27091408, 0.21666698, 0.01228625, -0.02358795, 0.01744491, 0.00000000, 0.00000000, 0.00000000, 0.00000000
1, 0.1575, 63, -0.36208555, -0.65778202, -0.67278194, -7.95698929, -11.12373352, 1.92365003, -15.46331501, -8.36012840, -81.61356354, 46.28243637, -19.88277626, -36.18115616, 0.88202691, -0.31866723, 0.27110386, 0.21675435, 0.02198878, -0.02188998, 0.02287418, 0.00000000, 0.00000000, 0.00000000, 0.00000000
1, 0.1600, 64, -0.36828560, -0.65773785, -0.67790085, -8.60208702, -11.33858681, 1.99278498, -15.46331501, -8.36012840, -81.61356354, 46.26709747, -19.90596962, -36.19927979, 0.88202906, -0.31843632, 0.27129522, 0.21684571, 0.02780820, -0.02166063, 0.02790637, 0.00000000, 0.00000000, 0.00000000, 0.00000000
1, 0.1625, 65, -0.37290800, -0.65902621, -0.68389881, -8.96369362, -11.06609249, 2.06760216, -15.34638977, -8.74013424, -82.02279663, 46.25063324, -19.92883110, -36.21673965, 0.88203561, -0.31819922, 0.27148011, 0.21693586, 0.03205541, -0.02008736, 0.03380316, 0.00000000, 0.00000000, 0.00000000, 0.00000000
1, 0.1650, 66, -0.37846845, -0.66238636, -0.68283910, -9.40028191, -10.44588375, 2.00749922, -15.34638977, -8.74013424, -82.02279663, 46.23271942, -19.95051765, -36.23310852, 0.88204837, -0.31795695, 0.27165052, 0.21702538, 0.03726012, -0.01643056, 0.03262038, 0.00000000, 0.00000000, 0.00000000, 0.00000000
1, 0.1675, 67, -0.37992173, -0.66264069, -0.68271774, -9.54991722, -9.75375462, 1.94743359, -15.34638977, -8.74013424, -82.02279663, 46.21401596, -19.97090340, -36.24825668, 0.88206601, -0.31771547, 0.27180651, 0.21711217, 0.03837896, -0.01587636, 0.03236146, 0.00000000, 0.00000000, 0.00000000, 0.00000000
1, 0.1700, 68, -0.38076767, -0.66265506, -0.68198305, -9.70254421, -8.71433640, 1.82214677, -15.34638977, -8.74013424, -82.02279663, 46.19433212, -19.98927116, -36.26163864, 0.88209021, -0.31747666, 0.27194089, 0.21719505, 0.03892363, -0.01555944, 0.03146959, 0.00000000, 0.00000000, 0.00000000, 0.00000000
1, 0.1725, 69, -0.37991181, -0.66425592, -0.68152058, -9.92542839, -7.88220406, 1.62433863, -15.34638977, -8.74013424, -82.02279663, 46.17367172, -20.00584221, -36.27378082, 0.88211983, -0.31723869, 0.27205679, 0.21727727, 0.03779597, -0.01365257, 0.03083111, 0.00000000, 0.00000000, 0.00000000, 0.00000000
1, 0.1750, 70, -0.37528789, -0.66781968, -0.68011826, -10.07816124, -6.84168816, 1.42912686, -15.63870239, -8.15550995, -81.37971497, 46.15206909, -20.02026558, -36.28427124, 0.88215578, -0.31700382, 0.27215058, 0.21735694, 0.03293548, -0.00978136, 0.02923287, 0.00000000, 0.00000000, 0.00000000, 0.00000000
1, 0.1775, 71, -0.37114576, -0.67297316, -0.67947245, -10.22999763, -5.87370491, 1.44274902, -15.63870239, -8.15550995, -81.37971497, 46.12944412, -20.03304100, -36.29288483, 0.88219839, -0.31677049, 0.27222505, 0.21743050, 0.02858388, -0.00431573, 0.02837247, 0.00000000, 0.00000000, 0.00000000, 0.00000000
1, 0.1800, 72, -0.36384684, -0.67813277, -0.67736679, -10.16640282, -4.90151072, 1.31584406, -15.63870239, -8.15550995, -81.37971497, 46.10641479, -20.04390907, -36.29985809, 0.88224572, -0.31654373, 0.27228025, 0.21749941, 0.02110678, 0.00115246, 0.02603972, 0.00000000, 0.00000000, 0.00000000, 0.00000000
1, 0.1825, 73, -0.35329831, -0.67979044, -0.67839140, -10.10338402, -3.86007929, 1.18987978, -15.63870239, -8.15550995, -81.37971497, 46.07723236, -20.05356407, -36.30344772, 0.88231689, -0.31628129, 0.27230558, 0.21756135, 0.01039991, 0.00318360, 0.02675968, 0.00000000, 0.00000000, 0.00000000, 0.00000000
1, 0.1850, 74, -0.34736282, -0.68192649, -0.68185776, -9.96974468, -2.67840242, 0.99564630, -15.63870239, -8.15550995, -81.37971497, 46.05344009, -20.06000328, -36.30674744, 0.88237435, -0.31607074, 0.27231663, 0.21761987, 0.00435892, 0.00561804, 0.02997191, 0.00000000, 0.00000000, 0.00000000, 0.00000000
1, 0.1875, 75, -0.34736282, -0.68192649, -0.68185776, -9.96974468, -2.67840242, 0.99564630, -14.26483440, -8.09704781, -81.81818390, 46.02964783, -20.06643867, -36.31003952, 0.88243198, -0.31586021, 0.27232775, 0.21767843, 0.00425336, 0.00591654, 0.02971787, 0.00000000, 0.00000000, 0.00000000, 0.00000000
1, 0.1900, 76, -0.33721891, -0.67627168, -0.68716860, -8.90789795, -0.85387307, 0.10769507, -14.26483440, -8.09704781, -81.81818390, 46.00787354, -20.06811714, -36.31147385, 0.88248873, -0.31568402, 0.27230260, 0.21773513, -0.00591806, 0.00051683, 0.03477878, 0.00000000, 0.00000000, 0.00000000, 0.00000000
1, 0.1925, 77, -0.33721891, -0.67627168, -0.68716860, -8.90789795, -0.85387307, 0.10769507, -14.26483440, -8.09704781, -81.81818390, 45.98609543, -20.06979370, -36.31291199, 0.88254553, -0.31550783, 0.27227747, 0.21779186, -0.00594553, 0.00077206, 0.03452898, 0.00000000, 0.00000000, 0.00000000, 0.00000000
1, 0.1950, 78, -0.32873869, -0.67100257, -0.68319505, -7.47315025, -0.49425626, 0.10788187, -14.26483440, -8.09704781, -81.81818390, 45.96766281, -20.07084656, -36.31365204, 0.88259459, -0.31536093, 0.27225223, 0.21783757, -0.01444301, -0.00428254, 0.03034258, 0.00000000, 0.00000000, 0.00000000, 0.00000000
1, 0.1975, 79, -0.32715788, -0.66835028, -0.67900294, -7.04023600, -0.69684166, 0.03377970, -14.26483440, -8.09704781, -81.81818390, 45.95049667, -20.07211876, -36.31491852, 0.88263899, -0.31522182, 0.27223238, 0.21788350, -0.01604468, -0.00673366, 0.02595342, 0.00000000, 0.00000000, 0.00000000, 0.00000000
1, 0.2000, 80, -0.32544258, -0.66672057, -0.67201626, -6.75202656, -0.76449186, 0.10186042, -15.25869656, -8.06781673, -82.46126556, 45.93405533, -20.07362747, -36.31619263, 0.88268137, -0.31508756, 0.27221569, 0.21792689, -0.01778472, -0.00816947, 0.01877934, 0.00000000, 0.00000000, 0.00000000, 0.00000000
1, 0.2025, 81, -0.32554156, -0.66729623, -0.66615939, -6.74946260, -1.10738409, -0.11261785, -15.25869656, -8.06781673, -82.46126556, 45.91797638, -20.07535553, -36.31851959, 0.88272065, -0.31495297, 0.27220416, 0.21797675, -0.01771406, -0.00740308, 0.01274032, 0.00000000, 0.00000000, 0.00000000, 0.00000000
1, 0.2050, 82, -0.32527733, -0.66750485, -0.66005325, -6.52642822, -2.00435972, -0.19544998, -15.25869656, -8.06781673, -82.46126556, 45.90310287, -20.07849121, -36.32271576, 0.88275260, -0.31481892, 0.27221039, 0.21803305, -0.01802969, -0.00701129, 0.00647211, 0.00000000, 0.00000000, 0.00000000, 0.00000000
1, 0.2075, 83, -0.32683900, -0.66805416, -0.65651470, -6.73457623, -2.90646243, -0.20700218, -15.25869656, -8.06781673, -82.46126556, 45.88830566, -20.08317375, -36.32865524, 0.88278067, -0.31467664, 0.27223295, 0.21809702, -0.01654479, -0.00627297, 0.00277901, 0.00000000, 0.00000000, 0.00000000, 0.00000000
1, 0.2100, 84, -0.32852107, -0.66933459, -0.65347594, -7.01240587, -4.08508778, -0.29201636, -15.25869656, -8.06781673, -82.46126556, 45.87364197, -20.08976364, -36.33700180, 0.88280308, -0.31452385, 0.27227622, 0.21817230, -0.01497072, -0.00479692, -0.00040489, 0.00000000, 0.00000000, 0.00000000, 0.00000000
1, 0.2125, 85, -0.33178309, -0.67145324, -0.65252411, -7.58028126, -4.98725176, -0.51221383, -14.87869072, -8.47705364, -82.05203247, 45.85828781, -20.09752655, -36.34748077, 0.88282305, -0.31435713, 0.27233267, 0.21826141, -0.01183594, -0.00246960, -0.00150496, 0.00000000, 0.00000000, 0.00000000, 0.00000000
1, 0.2150, 86, -0.33407575, -0.67550439, -0.65368122, -7.93214941, -5.95444250, -0.87387925, -14.87869072, -8.47705364, -82.05203247, 45.84292221, -20.10632896, -36.36047363, 0.88283789, -0.31418121, 0.27240360, 0.21836621, -0.00968754, 0.00179482, -0.00049174, 0.00000000, 0.00000000, 0.00000000, 0.00000000
1, 0.2175, 87, -0.33893245, -0.67779624, -0.65834987, -8.35777760, -6.64974833, -0.95185655, -14.87869072, -8.47705364, -82.05203247, 45.82701111, -20.11620331, -36.37493896, 0.88285112, -0.31399423, 0.27248535, 0.21847978, -0.00499269, 0.00431091, 0.00403106, 0.00000000, 0.00000000, 0.00000000, 0.00000000
1, 0.2200, 88, -0.34137392, -0.67664748, -0.66211540, -8.35196781, -7.40586853, -1.31182921, -14.87869072, -8.47705364, -82.05203247, 45.81183624, -20.12675285, -36.39152145, 0.88285804, -0.31380588, 0.27257919, 0.21860543, -0.00272414, 0.00338095, 0.00766242, 0.00000000, 0.00000000, 0.00000000, 0.00000000
1, 0.2225, 89, -0.34552494, -0.67412347, -0.66805589, -8.49532318, -7.53799725, -1.80273294, -14.87869072, -8.47705364, -82.05203247, 45.79670334, -20.13666153, -36.40925598, 0.88286269, -0.31361702, 0.27267152, 0.21874225, 0.00126454, 0.00107241, 0.01346666, 0.00000000, 0.00000000, 0.00000000, 0.00000000
1, 0.2250, 90, -0.34628794, -0.66913569, -0.67323250, -8.42502213, -7.39445639, -2.08077645, -15.20023346, -7.33703566, -81.87664032, 45.78183365, -20.14582253, -36.42723083, 0.88286638, -0.31343183, 0.27275950, 0.21888304, 0.00187743, -0.00370598, 0.01850701, 0.00000000, 0.00000000, 0.00000000, 0.00000000
1, 0.2275, 91, -0.34594324, -0.66578591, -0.67525929, -8.13770866, -7.38957310, -2.22152948, -15.20023346, -7.33703566, -81.87664032, 45.76777267, -20.15472603, -36.44545746, 0.88286746, -0.31325305, 0.27284777, 0.21902478, 0.00138682, -0.00685662, 0.02040601, 0.00000000, 0.00000000, 0.00000000, 0.00000000
1, 0.2300, 92, -0.34594882, -0.66539979, -0.67647529, -7.85547829, -6.76265192, -2.28389096, -15.20023346, -7.33703566, -81.87664032, 45.75403976, -20.16242981, -36.46260071, 0.88286990, -0.31308299, 0.27292484, 0.21916172, 0.00126618, -0.00705266, 0.02149314, 0.00000000, 0.00000000, 0.00000000, 0.00000000
1, 0.2325, 93, -0.34606045, -0.66883147, -0.67726082, -7.64423323, -6.20893383, -2.13719296, -15.20023346, -7.33703566, -81.87664032, 45.73441315, -20.16842461, -36.47658920, 0.88289505, -0.31288028, 0.27296948, 0.21929459, 0.00127962, -0.00337076, 0.02207357, 0.00000000, 0.00000000, 0.00000000, 0.00000000
1, 0.2350, 94, -0.34411013, -0.67213750, -0.67755985, -7.43424940, -5.51564264, -2.05853820, -15.20023346, -7.33703566, -81.87664032, 45.72077942, -20.17436409, -36.49093628, 0.88290298, -0.31272292, 0.27302608, 0.21941614, -0.00076804, 0.00011688, 0.02223760, 0.00000000, 0.00000000, 0.00000000, 0.00000000
1, 0.2375, 95, -0.34204125, -0.67337263, -0.67648321, -7.15400600, -4.61506462, -1.90736210, -15.22946453, -7.33703566, -82.13972473, 45.70714951, -20.17901039, -36.50328064, 0.88291520, -0.31257439, 0.27306771, 0.21952698, -0.00291300, 0.00152779, 0.02102059, 0.00000000, 0.00000000, 0.00000000, 0.00000000
1, 0.2400, 96, -0.33851093, -0.67511344, -0.67395097, -6.94722366, -3.57229090, -2.03377819, -15.22946453, -7.33703566, -82.13972473, 45.69343948, -20.18160629, -36.51387405, 0.88293159, -0.31243560, 0.27308941, 0.21963190, -0.00648591, 0.00343668, 0.01833856, 0.00000000, 0.00000000, 0.00000000, 0.00000000
1, 0.2425, 97, -0.33303863, -0.67552280, -0.66932487, -6.74012327, -2.53281140, -1.95041978, -15.22946453, -7.33703566, -82.13972473, 45.67950821, -20.18253899, -36.52232742, 0.88295299, -0.31230524, 0.27309257, 0.21972686, -0.01197347, 0.00400961, 0.01355315, 0.00000000, 0.00000000, 0.00000000, 0.00000000
1, 0.2450, 98, -0.32721001, -0.67541623, -0.66628027, -6.74567652, -1.84263265, -1.80116236, -15.22946453, -7.33703566, -82.13972473, 45.66501617, -20.18253899, -36.52919388, 0.88297933, -0.31217721, 0.27308345, 0.21981430, -0.01780206, 0.00406885, 0.01033866, 0.00000000, 0.00000000, 0.00000000, 0.00000000
1, 0.2475, 99, -0.32066742, -0.67222297, -0.66392308, -6.89142704, -1.57032108, -1.58717346, -15.22946453, -7.33703566, -82.13972473, 45.64983368, -20.18244171, -36.53513718, 0.88300925, -0.31204638, 0.27306983, 0.21989663, -0.02434308, 0.00104904, 0.00780326, 0.00000000, 0.00000000, 0.00000000, 0.00000000
1, 0.2500, 100, -0.31739497, -0.67208481, -0.66392767, -7.17679739, -1.78511357, -1.30939269, -15.69716454, -7.33703566, -82.69511414, 45.63390732, -20.18322372, -36.54097748, 0.88304126, -0.31190738, 0.27306089, 0.21997677, -0.02762834, 0.00109661, 0.00762457, 0.00000000, 0.00000000, 0.00000000, 0.00000000
1, 0.2525, 101, -0.31680739, -0.66982627, -0.66694915, -7.81743240, -2.48902535, -0.96714330, -15.69716454, -6.98626137, -82.69511414, 45.61662292, -20.18584824, -36.54751968, 0.88307494, -0.31175059, 0.27306473, 0.22005890, -0.02825886, -0.00095266, 0.01045465, 0.00000000, 0.00000000, 0.00000000, 0.00000000
1, 0.2550, 102, -0.31657997, -0.66818905, -0.66961294, -8.31351471, -3.26302791, -0.48643669, -15.69716454, -6.98626137, -82.69511414, 45.59829330, -20.19068336, -36.55463028, 0.88310975, -0.31157765, 0.27308437, 0.22014000, -0.02856553, -0.00235891, 0.01292431, 0.00000000, 0.00000000, 0.00000000, 0.00000000
1, 0.2575, 103, -0.31938428, -0.66704553, -0.67313343, -8.74023438, -3.75721240, -0.14204259, -15.69716454, -6.98626137, -82.69511414, 45.57900238, -20.19700241, -36.56204605, 0.88314599, -0.31139204, 0.27311379, 0.22022031, -0.02586472, -0.00325412, 0.01624572, 0.00000000, 0.00000000, 0.00000000, 0.00000000
1, 0.2600, 104, -0.32085216, -0.66627133, -0.67617345, -8.95508957, -3.83066130, -0.00245612, -15.69716454, -6.98626137, -82.69511414, 45.55912781, -20.20370483, -36.56933594, 0.88318402, -0.31120110, 0.27314454, 0.22029974, -0.02450661, -0.00377166, 0.01908154, 0.00000000, 0.00000000, 0.00000000, 0.00000000
1, 0.2625, 105, -0.32620296, -0.66295505, -0.67770034, -8.95602989, -3.69438362, 0.13927507, -15.69716454, -6.98626137, -82.69511414, 45.53907776, -20.21041870, -36.57610321, 0.88322347, -0.31100994, 0.27317363, 0.22037551, -0.01926577, -0.00682903, 0.02040232, 0.00000000, 0.00000000, 0.00000000, 0.00000000
1, 0.3125, 106, -0.37390515, -0.69347274, -0.62210339, -20.73177147, -14.67879677, -4.16758919, -15.37562084, -6.72318029, -81.87664032, 44.98712158, -20.55786514, -36.97328186, 0.88382941, -0.30473819, 0.27572036, 0.22351389, 0.02275208, 0.03154492, -0.04012245, 0.00000000, 0.00000000, 0.00000000, 0.00000000
1, 0.3150, 107, -0.37186509, -0.69156218, -0.62611085, -21.66896629, -14.40618038, -4.44058990, -15.58023930, -8.56474686, -81.58432770, 44.94543839, -20.57550240, -37.00885773, 0.88386506, -0.30427679, 0.27586290, 0.22382560, 0.02042380, 0.03019262, -0.03651983, 0.00000000, 0.00000000, 0.00000000, 0.00000000
1, 0.3175, 108, -0.36994290, -0.68748492, -0.62690771, -22.68139458, -13.71991062, -4.63779497, -15.58023930, -8.56474686, -81.58432770, 44.90092468, -20.59159851, -37.04349518, 0.88391030, -0.30380034, 0.27598590, 0.22414258, 0.01823861, 0.02670015, -0.03616662, 0.00000000, 0.00000000, 0.00000000, 0.00000000
1, 0.3200, 109, -0.36680371, -0.68608695, -0.62909234, -23.47587204, -13.30857468, -4.83944082, -15.58023930, -8.56474686, -81.58432770, 44.85428619, -20.60663986, -37.07773590, 0.88396186, -0.30331165, 0.27609560, 0.22446540, 0.01485368, 0.02590728, -0.03445423, 0.00000000, 0.00000000, 0.00000000, 0.00000000
1, 0.3225, 110, -0.36486807, -0.68606228, -0.63019568, -24.12925529, -12.55190563, -4.89698458, -15.58023930, -8.56474686, -81.58432770, 44.80554581, -20.62026215, -37.11064529, 0.88402176, -0.30281428, 0.27618703, 0.22478817, 0.01269552, 0.02650630, -0.03385276, 0.00000000, 0.00000000, 0.00000000, 0.00000000
1, 0.3250, 111, -0.36015615, -0.68270600, -0.63125372, -24.78426170, -11.58862400, -4.88178158, -15.58023930, -8.56474686, -81.58432770, 44.75453186, -20.63223076, -37.14171219, 0.88409156, -0.30230883, 0.27625671, 0.22510819, 0.00778809, 0.02379334, -0.03332949, 0.00000000, 0.00000000, 0.00000000, 0.00000000
1, 0.3275, 112, -0.35207638, -0.67656219, -0.63704175, -25.36392975, -11.04009438, -4.87244892, -15.93101406, -8.15550995, -82.08126068, 44.70169449, -20.64326859, -37.17170715, 0.88416833, -0.30179474, 0.27631292, 0.22542782, -0.00047192, 0.01831037, -0.02810050, 0.00000000, 0.00000000, 0.00000000, 0.00000000
1, 0.3300, 113, -0.34412435, -0.66821182, -0.64242905, -25.79961777, -10.49242020, -4.72371817, -15.93101406, -8.15550995, -82.08126068, 44.64731598, -20.65362167, -37.20039749, 0.88425148, -0.30127388, 0.27635726, 0.22574349, -0.00859305, 0.01063633, -0.02329242, 0.00000000, 0.00000000, 0.00000000, 0.00000000
1, 0.3325, 114, -0.33678472, -0.66129220, -0.65113634, -26.30467415, -10.22456360, -4.43867445, -15.93101406, -8.15550995, -82.08126068, 44.59316254, -20.66245842, -37.22848892, 0.88433540, -0.30076090, 0.27638918, 0.22605950, -0.01607702, 0.00438446, -0.01516754, 0.00000000, 0.00000000, 0.00000000, 0.00000000
1, 0.3350, 115, -0.32821560, -0.65807164, -0.65868086, -26.59066200, -10.30637264, -3.80938864, -15.93101406, -8.15550995, -82.08126068, 44.53607178, -20.67413521, -37.25506592, 0.88442880, -0.30021998, 0.27643186, 0.22636093, -0.02483679, 0.00187856, -0.00822598, 0.00000000, 0.00000000, 0.00000000, 0.00000000
1, 0.3375, 116, -0.32812282, -0.65347308, -0.66215432, -27.02078056, -10.32248592, -3.03886008, -15.93101406, -8.15550995, -82.08126068, 44.47739410, -20.68721008, -37.28019333, 0.88452828, -0.29966590, 0.27647761, 0.22665007, -0.02514309, -0.00198019, -0.00536674, 0.00000000, 0.00000000, 0.00000000, 0.00000000
1, 0.3400, 117, -0.32947564, -0.64988708, -0.66405183, -27.23640633, -10.19810867, -2.26712775, -15.63870239, -8.88629055, -81.75971985, 44.41757965, -20.70144463, -37.30360031, 0.88463348, -0.29910353, 0.27652487, 0.22692475, -0.02402261, -0.00480753, -0.00409037, 0.00000000, 0.00000000, 0.00000000, 0.00000000
1, 0.3425, 118, -0.33468488, -0.65161997, -0.66492307, -27.31115341, -9.72620201, -1.49114347, -15.63870239, -8.88629055, -81.75971985, 44.35674286, -20.71620750, -37.32463455, 0.88474542, -0.29853722, 0.27656758, 0.22718170, -0.01905447, -0.00230104, -0.00384873, 0.00000000, 0.00000000, 0.00000000, 0.00000000
1, 0.3450, 119, -0.34205908, -0.65064549, -0.65805000, -27.59908676, -9.59810352, -0.99888450, -15.63870239, -8.88629055, -81.75971985, 44.29476547, -20.73162842, -37.34447098, 0.88486218, -0.29796293, 0.27660951, 0.22742999, -0.01193205, -0.00248528, -0.01136059, 0.00000000, 0.00000000, 0.00000000, 0.00000000
1, 0.3475, 120, -0.34675533, -0.65140021, -0.64974254, -27.95979691, -9.39814091, -0.71523368, -15.63870239, -8.88629055, -81.75971985, 44.23156738, -20.74721146, -37.36338043, 0.88498336, -0.29738081, 0.27664751, 0.22767356, -0.00749010, -0.00092459, -0.02031904, 0.00000000, 0.00000000, 0.00000000, 0.00000000
1, 0.3500, 121, -0.35155267, -0.65332764, -0.63680923, -28.38882446, -9.61537552, -0.36707661, -15.63870239, -8.88629055, -81.75971985, 44.16719818, -20.76380730, -37.38201141, 0.88510752, -0.29678708, 0.27668974, 0.22791435, -0.00296360, 0.00182754, -0.03391123, 0.00000000, 0.00000000, 0.00000000, 0.00000000
1, 0.3525, 122, -0.35537356, -0.66048706, -0.62737966, -29.24647141, -10.18062878, -0.16211788, -15.28792763, -7.89242887, -82.11049652, 44.10091782, -20.78178978, -37.40127563, 0.88523436, -0.29617262, 0.27673978, 0.22815987, 0.00056386, 0.00984091, -0.04401404, 0.00000000, 0.00000000, 0.00000000, 0.00000000
1, 0.3550, 123, -0.35542983, -0.66898966, -0.61736733, -30.46096230, -11.09213066, -0.17050822, -15.28792763, -7.89242887, -82.11049652, 44.03220367, -20.80141830, -37.42223740, 0.88536322, -0.29553011, 0.27680123, 0.22841872, 0.00029984, 0.01923359, -0.05471881, 0.00000000, 0.00000000, 0.00000000, 0.00000000
1, 0.3575, 124, -0.35611972, -0.67399114, -0.61169922, -31.95862007, -12.49427795, 0.02519412, -15.28792763, -7.89242887, -82.11049652, 43.96053696, -20.82393265, -37.44539642, 0.88549364, -0.29485029, 0.27688336, 0.22869171, 0.00062242, 0.02517319, -0.06109858, 0.00000000, 0.00000000, 0.00000000, 0.00000000
1, 0.3600, 125, -0.35826799, -0.68007427, -0.60824418, -33.59690857, -14.30989933, 0.00592913, -15.28792763, -7.89242887, -82.11049652, 43.88599014, -20.84970856, -37.47193909, 0.88562310, -0.29412976, 0.27699214, 0.22898653, 0.00235027, 0.03224314, -0.06528194, 0.00000000, 0.00000000, 0.00000000, 0.00000000
1, 0.3625, 126, -0.36065558, -0.68823063, -0.60604239, -35.16326904, -16.18859482, -0.36412671, -15.28792763, -7.89242887, -82.11049652, 43.80900955, -20.87826729, -37.50264359, 0.88574880, -0.29337156, 0.27712685, 0.22930986, 0.00427204, 0.04142786, -0.06822540, 0.00000000, 0.00000000, 0.00000000, 0.00000000
1, 0.3650, 127, -0.36715418, -0.69935602, -0.60387772, -36.65637589, -18.20728683, -0.59644014, -14.96638393, -7.07395506, -82.40280151, 43.72980118, -20.91010857, -37.53750229, 0.88586992, -0.29257560, 0.27729139, 0.22965944, 0.01025149, 0.05362302, -0.07114029, 0.00000000, 0.00000000, 0.00000000, 0.00000000
1, 0.3675, 128, -0.37901711, -0.70941192, -0.60950625, -38.15096283, -20.08421135, -1.03664672, -14.96638393, -7.07395506, -82.40280151, 43.64839935, -20.94463158, -37.57664490, 0.88598639, -0.29174373, 0.27748168, 0.23003836, 0.02155161, 0.06478715, -0.06627280, 0.00000000, 0.00000000, 0.00000000, 0.00000000
1, 0.3700, 129, -0.39599186, -0.71637875, -0.61788750, -39.36168289, -21.54082680, -1.61196196, -14.96638393, -7.07395506, -82.40280151, 43.56534958, -20.98084831, -37.61954498, 0.88609797, -0.29088441, 0.27769014, 0.23044480, 0.03793609, 0.07289004, -0.05866140, 0.00000000, 0.00000000, 0.00000000, 0.00000000
1, 0.3725, 130, -0.41093859, -0.71775120, -0.62997550, -40.07717514, -22.08825874, -2.45632744, -14.96638393, -7.07395506, -82.40280151, 43.48146057, -21.01666069, -37.66504669, 0.88620573, -0.29001331, 0.27789995, 0.23087515, 0.05229929, 0.07540786, -0.04735231, 0.00000000, 0.00000000, 0.00000000, 0.00000000
1, 0.3750, 131, -0.42310300, -0.71799755, -0.64254063, -40.65240479, -22.28157043, -3.71599007, -14.96638393, -7.07395506, -82.40280151, 43.39714813, -21.05072403, -37.71331024, 0.88630873, -0.28913748, 0.27810234, 0.23133434, 0.06390883, 0.07679822, -0.03557665, 0.00000000, 0.00000000, 0.00000000, 0.00000000
1, 0.3775, 132, -0.43277279, -0.71693474, -0.66853261, -40.86845779, -22.46932602, -5.11663151, -15.84332085, -6.02163124, -82.31510925, 43.31341553, -21.08278084, -37.76460266, 0.88640386, -0.28826472, 0.27829808, 0.23182285, 0.07305649, 0.07686508, -0.01037467, 0.00000000, 0.00000000, 0.00000000, 0.00000000
1, 0.3800, 133, -0.44856992, -0.71527487, -0.67800629, -40.86980057, -22.51878929, -6.37622023, -15.84332085, -6.02163124, -82.31510925, 43.23060608, -21.11284637, -37.81840515, 0.88649148, -0.28739902, 0.27848664, 0.23233581, 0.08836408, 0.07631655, -0.00168771, 0.00000000, 0.00000000, 0.00000000, 0.00000000
1, 0.3825, 134, -0.45355773, -0.71595210, -0.68387192, -40.87263107, -22.55287743, -8.61475658, -15.84332085, -6.02163124, -82.31510925, 43.15303802, -21.14335442, -37.87802124, 0.88655305, -0.28655812, 0.27870286, 0.23287977, 0.09285520, 0.07804574, 0.00345355, 0.00000000, 0.00000000, 0.00000000, 0.00000000
1, 0.3850, 135, -0.45355773, -0.71595210, -0.68387192, -40.87263107, -22.55287743, -8.61475658, -15.84332085, -6.02163124, -82.31510925, 43.07185745, -21.16979218, -37.93620300, 0.88662714, -0.28570521, 0.27887738, 0.23343578, 0.09242487, 0.07912421, 0.00267208, 0.00000000, 0.00000000, 0.00000000, 0.00000000
1, 0.3875, 136, -0.46921149, -0.71341258, -0.68600053, -41.08822250, -22.93516350, -10.85731888, -15.84332085, -6.02163124, -82.31510925, 42.99199295, -21.19318199, -37.99944687, 0.88668787, -0.28485954, 0.27904394, 0.23403861, 0.10769799, 0.07763548, 0.00402153, 0.00000000, 0.00000000, 0.00000000, 0.00000000
1, 0.3900, 137, -0.46921149, -0.71341258, -0.68600053, -41.08822250, -22.93516350, -10.85731888, -15.84332085, -6.02163124, -82.31510925, 42.91213226, -21.21665382, -38.06266403, 0.88674772, -0.28401357, 0.27921018, 0.23464121, 0.10731608, 0.07868743, 0.00324452, 0.00000000, 0.00000000, 0.00000000, 0.00000000
1, 0.3925, 138, -0.49890575, -0.71465719, -0.68595880, -42.24562836, -22.49093628, -13.36535454, -14.87869072, -6.43086815, -82.22741699, 42.83089066, -21.23512650, -38.12997437, 0.88680351, -0.28316242, 0.27934605, 0.23529634, 0.13670978, 0.08098012, 0.00238913, 0.00000000, 0.00000000, 0.00000000, 0.00000000
1, 0.3950, 139, -0.51015222, -0.72014904, -0.68382025, -43.33026886, -21.92843056, -14.54316235, -14.87869072, -6.43086815, -82.22741699, 42.74741364, -21.25065613, -38.19855499, 0.88686234, -0.28230000, 0.27945784, 0.23597711, 0.14770365, 0.08753526, -0.00059980, 0.00000000, 0.00000000, 0.00000000, 0.00000000
1, 0.3975, 140, -0.52152020, -0.72648787, -0.68267202, -44.98960495, -21.43833733, -15.85995483, -14.87869072, -6.43086815, -82.22741699, 42.66041565, -21.26314926, -38.26882553, 0.88692653, -0.28141570, 0.27954316, 0.23669018, 0.15886843, 0.09496763, -0.00264966, 0.00000000, 0.00000000, 0.00000000, 0.00000000
1, 0.4000, 141, -0.53421509, -0.73491901, -0.68179756, -46.64790344, -21.08562469, -17.24855423, -14.87869072, -6.43086815, -82.22741699, 42.57004166, -21.27274323, -38.34117508, 0.88699466, -0.28050920, 0.27960417, 0.23743771, 0.17140728, 0.10452160, -0.00447470, 0.00000000, 0.00000000, 0.00000000, 0.00000000
1, 0.4025, 142, -0.54109025, -0.74429762, -0.68156046, -48.31321716, -19.90096092, -18.69578934, -14.87869072, -6.43086815, -82.22741699, 42.47576523, -21.27781677, -38.41423035, 0.88707137, -0.27958503, 0.27962437, 0.23821583, 0.17819989, 0.11505198, -0.00572437, 0.00000000, 0.00000000, 0.00000000, 0.00000000
1, 0.4050, 143, -0.54187906, -0.75787032, -0.67834508, -50.05073547, -18.71367073, -20.35257149, -15.87255192, -7.19087982, -82.60742188, 42.37755966, -21.27802658, -38.48841095, 0.88715607, -0.27864310, 0.27960208, 0.23902903, 0.17898533, 0.12980452, -0.01001633, 0.00000000, 0.00000000, 0.00000000, 0.00000000
1, 0.4075, 144, -0.53542095, -0.76391339, -0.67490715, -51.64110184, -18.00311279, -22.43594170, -15.87255192, -7.19087982, -82.60742188, 42.27639771, -21.27353096, -38.56543350, 0.88724250, -0.27768633, 0.27954459, 0.23988754, 0.17260033, 0.13704476, -0.01458323, 0.00000000, 0.00000000, 0.00000000, 0.00000000
1, 0.4100, 145, -0.52123505, -0.76483053, -0.67495024, -52.93831635, -17.91739845, -24.24898338, -15.87255192, -7.19087982, -82.60742188, 42.17324448, -21.26596260, -38.64590454, 0.88732624, -0.27671549, 0.27946720, 0.24078809, 0.15853751, 0.13917205, -0.01570309, 0.00000000, 0.00000000, 0.00000000, 0.00000000
1, 0.4125, 146, -0.49858847, -0.76536679, -0.68172568, -54.01725769, -18.10991669, -25.85668755, -15.87255192, -7.19087982, -82.60742188, 42.06867218, -21.25618935, -38.72993851, 0.88740528, -0.27573204, 0.27937767, 0.24172708, 0.13604990, 0.14092848, -0.01011432, 0.00000000, 0.00000000, 0.00000000, 0.00000000
1, 0.4150, 147, -0.47427934, -0.76514864, -0.69778001, -55.37931061, -18.73043442, -26.83981323, -15.87255192, -7.19087982, -82.60742188, 41.96180344, -21.24606323, -38.81705856, 0.88748175, -0.27472442, 0.27928647, 0.24269667, 0.11190546, 0.14195901, 0.00472892, 0.00000000, 0.00000000, 0.00000000, 0.00000000
1, 0.4175, 148, -0.45543349, -0.76649636, -0.71787959, -56.74076462, -19.29379463, -27.05282021, -15.98947620, -6.40163708, -82.60742188, 41.85203552, -21.23678780, -38.90562439, 0.88756013, -0.27368820, 0.27919716, 0.24368156, 0.09321049, 0.14459652, 0.02359218, 0.00000000, 0.00000000, 0.00000000, 0.00000000
1, 0.4200, 149, -0.43815744, -0.76969337, -0.73812652, -57.60879135, -18.61277390, -26.83093071, -15.98947620, -6.40163708, -82.60742188, 41.73949814, -21.22677231, -38.99254227, 0.88764727, -0.27263692, 0.27909082, 0.24466291, 0.07609740, 0.14911634, 0.04257166, 0.00000000, 0.00000000, 0.00000000, 0.00000000
1, 0.4225, 150, -0.42123634, -0.77510798, -0.75816220, -57.98302460, -16.75440598, -26.31492805, -15.98947620, -6.40163708, -82.60742188, 41.62442780, -21.21430779, -39.07513046, 0.88774866, -0.27158454, 0.27894896, 0.24562494, 0.05937907, 0.15587676, 0.06130356, 0.00000000, 0.00000000, 0.00000000, 0.00000000
1, 0.4250, 151, -0.40236637, -0.78043050, -0.77538997, -57.57394791, -13.98966408, -25.71924973, -15.98947620, -6.40163708, -82.60742188, 41.50816345, -21.19781494, -39.15162277, 0.88786602, -0.27055076, 0.27875873, 0.24655610, 0.04077748, 0.16254559, 0.07719822, 0.00000000, 0.00000000, 0.00000000, 0.00000000
1, 0.4275, 152, -0.38191548, -0.78516072, -0.79053456, -57.24115753, -10.67389011, -24.97597504, -15.98947620, -6.40163708, -82.60742188, 41.39004517, -21.17648506, -39.22076035, 0.88800377, -0.26953620, 0.27850991, 0.24745077, 0.02067370, 0.16862753, 0.09096958, 0.00000000, 0.00000000, 0.00000000, 0.00000000
1, 0.4300, 153, -0.35989186, -0.78805381, -0.80467665, -56.76197433, -7.63701725, -24.02713966, -15.66793346, -6.08009338, -82.89973450, 41.27048492, -21.15115738, -39.28264999, 0.88816059, -0.26854104, 0.27820989, 0.24830581, -0.00093767, 0.17287642, 0.10370672, 0.00000000, 0.00000000, 0.00000000, 0.00000000
1, 0.4325, 154, -0.33664414, -0.79050517, -0.81490415, -56.13765717, -4.73947430, -22.94079018, -15.66793346, -6.08009338, -82.89973450, 41.15256500, -21.11822128, -39.33787537, 0.88832968, -0.26759943, 0.27784035, 0.24913025, -0.02364923, 0.17663541, 0.11251357, 0.00000000, 0.00000000, 0.00000000, 0.00000000
1, 0.4350, 155, -0.31785864, -0.79634118, -0.82199728, -55.58108902, -2.32836509, -21.79087257, -15.66793346, -6.08009338, -82.89973450, 41.03092957, -21.08679771, -39.38598633, 0.88852078, -0.26664144, 0.27745587, 0.24990283, -0.04192309, 0.18383428, 0.11815611, 0.00000000, 0.00000000, 0.00000000, 0.00000000
1, 0.4375, 156, -0.30426484, -0.80398136, -0.82495260, -55.30800629, -0.40460378, -20.64663887, -15.66793346, -6.08009338, -82.89973450, 40.90793610, -21.05371475, -39.42845917, 0.88872677, -0.26569191, 0.27704182, 0.25063998, -0.05497807, 0.19285083, 0.11964130, 0.00000000, 0.00000000, 0.00000000, 0.00000000
1, 0.4400, 157, -0.29522827, -0.81838429, -0.82067031, -54.95889282, 1.03406751, -19.43928719, -15.66793346, -6.08009338, -82.89973450, 40.78402328, -21.01997375, -39.46603012, 0.88894463, -0.26474923, 0.27660832, 0.25134286, -0.06346500, 0.20864248, 0.11387891, 0.00000000, 0.00000000, 0.00000000, 0.00000000
1, 0.4425, 158, -0.28738335, -0.83311862, -0.81076950, -54.82527542, 2.40588069, -18.51189995, -14.70330334, -5.87547493, -83.10435486, 40.65891647, -20.98522186, -39.49939346, 0.88917363, -0.26381066, 0.27615386, 0.25201863, -0.07074369, 0.22477990, 0.10248348, 0.00000000, 0.00000000, 0.00000000, 0.00000000
1, 0.4450, 159, -0.28014579, -0.84712350, -0.80048984, -55.11671448, 3.01315069, -17.66343307, -14.70330334, -5.87547493, -83.10435486, 40.53209686, -20.95076561, -39.53005600, 0.88941121, -0.26286426, 0.27569050, 0.25267580, -0.07741968, 0.24021423, 0.09069552, 0.00000000, 0.00000000, 0.00000000, 0.00000000
1, 0.4475, 160, -0.27548000, -0.85897434, -0.79554844, -55.76499176, 3.27417135, -17.02831459, -14.70330334, -5.87547493, -83.10435486, 40.40304947, -20.91691017, -39.55904770, 0.88965601, -0.26190248, 0.27522168, 0.25332263, -0.08153358, 0.25352836, 0.08422816, 0.00000000, 0.00000000, 0.00000000, 0.00000000
1, 0.4500, 161, -0.27061474, -0.86604577, -0.79811066, -56.83760834, 2.63656735, -16.75369453, -14.70330334, -5.87547493, -83.10435486, 40.27151108, -20.88477325, -39.58864975, 0.88990325, -0.26091424, 0.27476040, 0.25397378, -0.08587487, 0.26210505, 0.08524966, 0.00000000, 0.00000000, 0.00000000, 0.00000000
1, 0.4525, 162, -0.26541114, -0.87095314, -0.80577266, -57.76655579, 2.00140452, -16.54945183, -14.70330334, -5.87547493, -83.10435486, 40.13790894, -20.85424232, -39.61900711, 0.89015168, -0.25990281, 0.27430701, 0.25462976, -0.09058057, 0.26855397, 0.09136023, 0.00000000, 0.00000000, 0.00000000, 0.00000000
1, 0.4550, 163, -0.26395556, -0.88185370, -0.81681806, -58.62535477, 1.57462656, -16.34260941, -15.05407715, -5.37854433, -83.19204712, 40.00228882, -20.82492638, -39.64974976, 0.89040190, -0.25887063, 0.27385783, 0.25528881, -0.09155795, 0.28103024, 0.10084224, 0.00000000, 0.00000000, 0.00000000, 0.00000000
1, 0.4575, 164, -0.26410088, -0.89459789, -0.83705324, -59.19558334, 1.01315737, -16.20848083, -15.05407715, -5.37854433, -83.19204712, 39.86548996, -20.79696846, -39.68124771, 0.89065129, -0.25782299, 0.27341667, 0.25595140, -0.09095658, 0.29537451, 0.11951193, 0.00000000, 0.00000000, 0.00000000, 0.00000000
1, 0.4600, 165, -0.26805848, -0.90180737, -0.86733830, -59.19579697, 1.01535439, -16.34832954, -15.05407715, -5.37854433, -83.19204712, 39.72879791, -20.76885796, -39.71310043, 0.89089817, -0.25677571, 0.27297416, 0.25661623, -0.08654025, 0.30418628, 0.14823559, 0.00000000, 0.00000000, 0.00000000, 0.00000000
1, 0.4625, 166, -0.27045882, -0.90542078, -0.89928228, -58.62264252, 1.16689074, -16.83772850, -15.05407715, -5.37854433, -83.19204712, 39.59381866, -20.73974419, -39.74576187, 0.89113843, -0.25574288, 0.27252868, 0.25728583, -0.08366473, 0.30938065, 0.17863488, 0.00000000, 0.00000000, 0.00000000, 0.00000000
1, 0.4650, 167, -0.26933548, -0.90602326, -0.92568845, -57.04227066, 1.12890291, -17.89251137, -15.05407715, -5.37854433, -83.19204712, 39.46358490, -20.70909309, -39.78072739, 0.89136219, -0.25474638, 0.27208644, 0.25796631, -0.08428770, 0.31150240, 0.20354193, 0.00000000, 0.00000000, 0.00000000, 0.00000000
1, 0.4675, 168, -0.26928368, -0.90174258, -0.94138646, -54.96092224, 1.37146723, -18.87518692, -15.20023346, -7.77550411, -83.25051117, 39.33913040, -20.67648888, -39.81737518, 0.89156890, -0.25379714, 0.27164531, 0.25865179, -0.08380717, 0.30866420, 0.21779478, 0.00000000, 0.00000000, 0.00000000, 0.00000000
1, 0.4700, 169, -0.27210745, -0.89543158, -0.94519436, -53.16490555, 1.33549368, -19.93064690, -15.20023346, -7.77550411, -83.25051117, 39.21995926, -20.64235687, -39.85633469, 0.89175814, -0.25288850, 0.27120876, 0.25934696, -0.08042601, 0.30372661, 0.22020793, 0.00000000, 0.00000000, 0.00000000, 0.00000000
1, 0.4725, 170, -0.27629769, -0.88487309, -0.95418900, -51.65362930, 0.95174527, -21.05982780, -15.20023346, -7.77550411, -83.25051117, 39.10562897, -20.60726166, -39.89834976, 0.89192891, -0.25201339, 0.27078161, 0.26005688, -0.07566248, 0.29447997, 0.22785592, 0.00000000, 0.00000000, 0.00000000, 0.00000000
1, 0.4750, 171, -0.27384481, -0.87770039, -0.97363579, -50.35523605, 0.22089304, -22.26296616, -15.20023346, -7.77550411, -83.25051117, 38.99584579, -20.57177353, -39.94414902, 0.89208001, -0.25116608, 0.27036902, 0.26078615, -0.07753554, 0.28856295, 0.24600345, 0.00000000, 0.00000000, 0.00000000, 0.00000000
1, 0.4775, 172, -0.26440996, -0.87295353, -1.04494572, -49.12797165, -0.51832020, -22.97640038, -15.20023346, -7.77550411, -83.25051117, 38.89008713, -20.53668213, -39.99273682, 0.89221489, -0.25034237, 0.26997355, 0.26152578, -0.08639692, 0.28502518, 0.31605971, 0.00000000, 0.00000000, 0.00000000, 0.00000000
1, 0.4800, 173, -0.26590389, -0.86600739, -1.08430612, -47.90604019, -0.56955189, -23.40073204, -14.82022762, -5.29085064, -83.48435974, 38.78770828, -20.50110054, -40.04234314, 0.89233893, -0.24954423, 0.26958328, 0.26226634, -0.08432135, 0.27924597, 0.35420102, 0.00000000, 0.00000000, 0.00000000, 0.00000000
1, 0.4825, 174, -0.26590389, -0.86600739, -1.08430612, -47.90604019, -0.56955189, -23.40073204, -14.82022762, -5.29085064, -83.48435974, 38.68528366, -20.46036339, -40.09165955, 0.89246494, -0.24876341, 0.26915288, 0.26302060, -0.08365536, 0.28039664, 0.35295916, 0.00000000, 0.00000000, 0.00000000, 0.00000000
1, 0.4850, 175, -0.30363017, -0.82909358, -1.15930390, -40.15999603, 1.07232940, -26.34127045, -14.82022762, -5.29085064, -83.48435974, 38.60342789, -20.41714478, -40.14476013, 0.89253765, -0.24814218, 0.26875848, 0.26376337, -0.04522222, 0.24436402, 0.42691535, 0.00000000, 0.00000000, 0.00000000, 0.00000000
1, 0.4875, 176, -0.30363017, -0.82909358, -1.15930390, -40.15999603, 1.07232940, -26.34127045, -14.82022762, -5.29085064, -83.48435974, 38.52154541, -20.37400055, -40.19791794, 0.89260924, -0.24752066, 0.26836374, 0.26450580, -0.04451643, 0.24524772, 0.42587507, 0.00000000, 0.00000000, 0.00000000, 0.00000000
1, 0.4900, 177, -0.35930097, -0.78122091, -1.22407699, -32.57477951, 4.47127008, -31.00596046, -14.82022762, -5.29085064, -83.48435974, 38.46002579, -20.31700897, -40.25520325, 0.89263195, -0.24709351, 0.26792115, 0.26527604, 0.01208702, 0.19794780, 0.48975092, 0.00000000, 0.00000000, 0.00000000, 0.00000000
1, 0.4925, 178, -0.38209143, -0.76701605, -1.24483085, -28.35595131, 6.76493645, -33.43655014, -14.96638393, -5.64162540, -83.74744415, 38.40945053, -20.25179863, -40.31380081, 0.89263040, -0.24677578, 0.26744491, 0.26605636, 0.03594507, 0.18414620, 0.50968105, 0.00000000, 0.00000000, 0.00000000, 0.00000000
1, 0.4950, 179, -0.39925298, -0.76063281, -1.25838411, -24.07047081, 9.74615669, -35.50833130, -14.96638393, -5.64162540, -83.74744415, 38.36933136, -20.17757225, -40.37182999, 0.89261031, -0.24657066, 0.26692411, 0.26683572, 0.05432227, 0.17799997, 0.52247518, 0.00000000, 0.00000000, 0.00000000, 0.00000000
1, 0.4975, 180, -0.41325638, -0.75619960, -1.27209580, -19.71289635, 12.72585201, -37.44049454, -14.96638393, -5.64162540, -83.74744415, 38.33972168, -20.09454155, -40.42898560, 0.89257205, -0.24647878, 0.26636001, 0.26761106, 0.06968625, 0.17363769, 0.53549469, 0.00000000, 0.00000000, 0.00000000, 0.00000000
1, 0.5000, 181, -0.42311943, -0.75545889, -1.28416181, -14.99828434, 15.92320633, -39.79051208, -14.96638393, -5.64162540, -83.74744415, 38.32169724, -20.00162315, -40.48577499, 0.89251256, -0.24651082, 0.26574832, 0.26838735, 0.08107281, 0.17278400, 0.54694134, 0.00000000, 0.00000000, 0.00000000, 0.00000000
1, 0.5025, 182, -0.42412627, -0.75652397, -1.29602921, -10.21405315, 19.33444023, -42.48755646, -14.96638393, -5.64162540, -83.74744415, 38.31552887, -19.89784050, -40.54255295, 0.89243031, -0.24667132, 0.26508340, 0.26916975, 0.08378230, 0.17354527, 0.55826116, 0.00000000, 0.00000000, 0.00000000, 0.00000000
1, 0.5050, 183, -0.41760042, -0.76065296, -1.30612612, -5.06607485, 22.13467979, -45.75359726, -14.55714703, -5.78778124, -84.39052582, 38.32286835, -19.78350067, -40.60148621, 0.89231634, -0.24696712, 0.26437634, 0.26997060, 0.07913354, 0.17715982, 0.56790143, 0.00000000, 0.00000000, 0.00000000, 0.00000000
1, 0.5075, 184, -0.40595791, -0.76304477, -1.30704188, 0.08410313, 24.65906715, -49.09332657, -14.55714703, -5.78778124, -84.39052582, 38.34389114, -19.65902519, -40.66314316, 0.89216828, -0.24739699, 0.26363212, 0.27079278, 0.06953615, 0.17882600, 0.56845623, 0.00000000, 0.00000000, 0.00000000, 0.00000000
1, 0.5100, 185, -0.39126641, -0.76961702, -1.30692816, 5.09827185, 26.21608353, -52.65554810, -14.55714703, -5.78778124, -84.39052582, 38.37889862, -19.52593803, -40.72953033, 0.89197963, -0.24795371, 0.26286754, 0.27164659, 0.05703304, 0.18446353, 0.56808913, 0.00000000, 0.00000000, 0.00000000, 0.00000000
1, 0.5125, 186, -0.37595075, -0.77068716, -1.29585600, 10.69278908, 27.15423203, -56.15811157, -14.55714703, -5.78778124, -84.39052582, 38.42959595, -19.38552475, -40.80148315, 0.89174390, -0.24864455, 0.26209846, 0.27253094, 0.04402804, 0.18437278, 0.55689538, 0.00000000, 0.00000000, 0.00000000, 0.00000000
1, 0.5150, 187, -0.36573264, -0.77030087, -1.28511763, 16.71885490, 28.03046989, -59.87275314, -14.55714703, -5.78778124, -84.39052582, 38.49718475, -19.23755264, -40.87948990, 0.89145654, -0.24947855, 0.26132748, 0.27344781, 0.03624724, 0.18258351, 0.54618078, 0.00000000, 0.00000000, 0.00000000, 0.00000000
1, 0.5175, 188, -0.35367432, -0.77387232, -1.27212191, 24.11485672, 28.36996078, -63.87891388, -13.35866737, -6.48933077, -85.32592773, 38.58552170, -19.08257484, -40.96494293, 0.89110476, -0.25048065, 0.26057157, 0.27439791, 0.02674391, 0.18446273, 0.53339809, 0.00000000, 0.00000000, 0.00000000, 0.00000000
1, 0.5200, 189, -0.33018234, -0.79366297, -1.26465225, 33.31050110, 28.31959534, -68.45575714, -13.35866737, -6.48933077, -85.32592773, 38.69960403, -18.92040443, -41.05955124, 0.89067256, -0.25168654, 0.25984591, 0.27538422, 0.00592814, 0.20220751, 0.52638429, 0.00000000, 0.00000000, 0.00000000, 0.00000000
1, 0.5225, 190, -0.29733065, -0.73912221, -1.20767379, 40.33873367, 29.43821335, -73.77901459, -13.35866737, -6.48933077, -85.32592773, 38.83378220, -18.74752617, -41.16281128, 0.89017302, -0.25306502, 0.25911060, 0.27642700, -0.02406784, 0.14532867, 0.47003430, 0.00000000, 0.00000000, 0.00000000, 0.00000000
1, 0.5250, 191, -0.28891137, -0.69616175, -1.21742010, 41.11427689, 30.55117035, -78.03279877, -13.35866737, -6.48933077, -85.32592773, 38.97163010, -18.56557655, -41.27241898, 0.88964635, -0.25448832, 0.25833389, 0.27754077, -0.02947842, 0.09995624, 0.48042154, 0.00000000, 0.00000000, 0.00000000, 0.00000000
1, 0.5275, 192, -0.22895820, -0.69483417, -1.23071992, 43.62128067, 31.29890442, -80.05912018, -13.35866737, -6.48933077, -85.32592773, 39.11614990, -18.37873268, -41.38434982, 0.88909376, -0.25597513, 0.25754547, 0.27867439, -0.08633851, 0.09611976, 0.49442571, 0.00000000, 0.00000000, 0.00000000, 0.00000000
1, 0.5300, 193, -0.18918186, -0.66527110, -1.23047101, 47.41652679, 33.00278473, -80.46804810, -12.80327415, -7.22011089, -84.74130249, 39.26897812, -18.18765831, -41.49364090, 0.88852310, -0.25754705, 0.25674361, 0.27978387, -0.12294835, 0.06393273, 0.49496669, 0.00000000, 0.00000000, 0.00000000, 0.00000000
1, 0.5325, 194, -0.19421031, -0.64166594, -1.25808251, 48.14307022, 32.23360443, -79.57164764, -12.80327415, -7.22011089, -84.74130249, 39.41833496, -17.99576187, -41.60030365, 0.88795978, -0.25910139, 0.25592485, 0.28088501, -0.11473626, 0.03775179, 0.52334458, 0.00000000, 0.00000000, 0.00000000, 0.00000000
1, 0.5350, 195, -0.17899261, -0.63094968, -1.26320410, 49.81825256, 29.93454742, -77.71990967, -12.80327415, -7.22011089, -84.74130249, 39.57595062, -17.81443405, -41.70785141, 0.88736701, -0.26068327, 0.25521034, 0.28194264, -0.12694244, 0.02439678, 0.52938026, 0.00000000, 0.00000000, 0.00000000, 0.00000000
1, 0.5375, 196, -0.16129579, -0.63995004, -1.27290964, 53.99419022, 29.46026802, -75.92154694, -12.80327415, -7.22011089, -84.74130249, 39.74261093, -17.63660049, -41.81190491, 0.88675505, -0.26233190, 0.25453982, 0.28294364, -0.14168282, 0.03066099, 0.54012674, 0.00000000, 0.00000000, 0.00000000, 0.00000000
1, 0.5400, 197, -0.15506850, -0.63197929, -1.28673077, 58.36903381, 30.86950111, -74.86763000, -12.80327415, -7.22011089, -84.74130249, 39.91835785, -17.45745277, -41.91082001, 0.88612807, -0.26406679, 0.25387385, 0.28389055, -0.14492889, 0.01984054, 0.55509716, 0.00000000, 0.00000000, 0.00000000, 0.00000000
1, 0.5425, 198, -0.14933357, -0.60350651, -1.28141868, 61.29943848, 32.77852631, -75.62067413, -12.80327415, -7.22011089, -84.74130249, 40.10041428, -17.27314377, -42.00733566, 0.88548589, -0.26587304, 0.25318354, 0.28482339, -0.14759365, -0.01157236, 0.55099940, 0.00000000, 0.00000000, 0.00000000, 0.00000000
1, 0.5450, 199, -0.14143485, -0.58779150, -1.29463601, 63.36058044, 35.31801605, -77.34146881, -12.01403046, -8.47705364, -85.00438690, 40.28685760, -17.08090973, -42.10227966, 0.88483053, -0.26774302, 0.25244570, 0.28576192, -0.15228695, -0.03030158, 0.56546640, 0.00000000, 0.00000000, 0.00000000, 0.00000000
1, 0.5475, 200, -0.12050113, -0.56173974, -1.27839446, 66.43292236, 37.43719482, -78.16205597, -12.01403046, -8.47705364, -85.00438690, 40.47986984, -16.88302040, -42.19450760, 0.88415891, -0.26968852, 0.25167990, 0.28668538, -0.16991743, -0.05946113, 0.55054384, 0.00000000, 0.00000000, 0.00000000, 0.00000000
1, 0.5500, 201, -0.09216386, -0.54186976, -1.26592851, 69.57559967, 40.07909393, -76.94752502, -12.01403046, -8.47705364, -85.00438690, 40.67821503, -16.68178558, -42.27903748, 0.88348573, -0.27170295, 0.25088850, 0.28755096, -0.19489208, -0.08250804, 0.53946364, 0.00000000, 0.00000000, 0.00000000, 0.00000000
1, 0.5525, 202, -0.07487929, -0.51881212, -1.25644612, 72.21784973, 42.43494797, -75.45548248, -12.01403046, -8.47705364, -85.00438690, 40.88066101, -16.47824097, -42.35578156, 0.88281393, -0.27377334, 0.25007561, 0.28835765, -0.20877188, -0.10879198, 0.53142554, 0.00000000, 0.00000000, 0.00000000, 0.00000000
1, 0.5550, 203, -0.06111520, -0.49465948, -1.24730635, 73.63754272, 44.84862137, -73.95864105, -12.01403046, -8.47705364, -85.00438690, 41.08415985, -16.27234268, -42.42462540, 0.88215077, -0.27587637, 0.24923256, 0.28911158, -0.21908811, -0.13618162, 0.52375567, 0.00000000, 0.00000000, 0.00000000, 0.00000000
1, 0.5575, 204, -0.05028754, -0.47234800, -1.24796450, 73.83508301, 47.31572723, -72.17733765, -11.45863724, -9.90938282, -84.88745880, 41.28554153, -16.06449699, -42.48491669, 0.88150561, -0.27798742, 0.24835247, 0.28981352, -0.22643161, -0.16169873, 0.52587640, 0.00000000, 0.00000000, 0.00000000, 0.00000000
1, 0.5600, 205, -0.04189605, -0.44454816, -1.24633408, 74.59634399, 51.04436111, -71.01021576, -11.45863724, -9.90938282, -84.88745880, 41.48599625, -15.85138893, -42.53569794, 0.88087803, -0.28012863, 0.24741104, 0.29046449, -0.23124701, -0.19269839, 0.52570266, 0.00000000, 0.00000000, 0.00000000, 0.00000000
1, 0.5625, 206, -0.03943718, -0.42843464, -1.25476849, 75.63977814, 55.33727646, -70.32595825, -11.45863724, -9.90938282, -84.88745880, 41.68628311, -15.63121414, -42.57693100, 0.88026589, -0.28231165, 0.24639632, 0.29106861, -0.23000723, -0.21202049, 0.53559053, 0.00000000, 0.00000000, 0.00000000, 0.00000000
1, 0.5650, 207, -0.03177037, -0.41009837, -1.26220202, 76.90100861, 59.42009354, -69.36549377, -11.45863724, -9.90938282, -84.88745880, 41.88695145, -15.40489578, -42.60838699, 0.87966830, -0.28453773, 0.24531546, 0.29162040, -0.23386806, -0.23357725, 0.54448485, 0.00000000, 0.00000000, 0.00000000, 0.00000000
1, 0.5675, 208, -0.02011834, -0.39204618, -1.27429140, 78.59333801, 63.63553619, -67.77518463, -11.45863724, -9.90938282, -84.88745880, 42.08877182, -15.17329788, -42.62861633, 0.87908667, -0.28681263, 0.24417263, 0.29210439, -0.24162100, -0.25486794, 0.55805498, 0.00000000, 0.00000000, 0.00000000, 0.00000000
1, 0.5700, 209, -0.00422020, -0.36744648, -1.27859092, 81.00537872, 67.78514862, -65.97829437, -10.87401295, -11.54633141, -84.53668213, 42.29354095, -14.93696308, -42.63731384, 0.87851721, -0.28914857, 0.24297509, 0.29251304, -0.25353596, -0.28274429, 0.56387854, 0.00000000, 0.00000000, 0.00000000, 0.00000000
1, 0.5725, 210, 0.01059414, -0.34082147, -1.27870238, 83.70285034, 72.21221161, -64.03869629, -10.87401295, -11.54633141, -84.53668213, 42.50186920, -14.69569874, -42.63369751, 0.87795985, -0.29155198, 0.24172029, 0.29284003, -0.26427937, -0.31269112, 0.56556487, 0.00000000, 0.00000000, 0.00000000, 0.00000000
1, 0.5750, 211, 0.02190038, -0.31278828, -1.27524137, 86.24989319, 77.40283966, -62.29806900, -10.87401295, -11.54633141, -84.53668213, 42.71323776, -14.44784069, -42.61677551, 0.87741780, -0.29402584, 0.24039148, 0.29308489, -0.27139884, -0.34408894, 0.56371987, 0.00000000, 0.00000000, 0.00000000, 0.00000000
1, 0.5775, 212, 0.04541546, -0.24699493, -1.27770400, 88.86892700, 82.59304047, -60.48774719, -10.87401295, -11.54633141, -84.53668213, 42.92789078, -14.19360638, -42.58640289, 0.87689036, -0.29657102, 0.23898967, 0.29324564, -0.29061466, -0.41329098, 0.56784493, 0.00000000, 0.00000000, 0.00000000, 0.00000000
1, 0.5800, 213, 0.06652114, -0.21241736, -1.27306306, 91.56202698, 87.82457733, -56.85867310, -10.87401295, -11.54633141, -84.53668213, 43.14528656, -13.93611813, -42.53903580, 0.87638801, -0.29917958, 0.23752631, 0.29328638, -0.30736101, -0.45130402, 0.56491750, 0.00000000, 0.00000000, 0.00000000, 0.00000000
1, 0.5825, 214, 0.06652114, -0.21241736, -1.27306306, 91.56202698, 87.82457733, -56.85867310, -10.11400127, -11.48786926, -84.44898987, 43.35171127, -13.67410088, -42.48831940, 0.87591136, -0.30172211, 0.23599178, 0.29334429, -0.30292004, -0.45459998, 0.56651992, 0.00000000, 0.00000000, 0.00000000, 0.00000000
1, 0.5850, 215, 0.08959018, -0.12254575, -1.27442288, 98.57130432, 101.46275330, -52.36035538, -10.11400127, -11.48786926, -84.44898987, 43.57900238, -13.39995098, -42.40656281, 0.87544507, -0.30452302, 0.23433781, 0.29316789, -0.32133716, -0.54804122, 0.56971985, 0.00000000, 0.00000000, 0.00000000, 0.00000000
1, 0.5875, 216, 0.08959018, -0.12254575, -1.27442288, 98.57130432, 101.46275330, -52.36035538, -10.11400127, -11.48786926, -84.44898987, 43.80644226, -13.12612247, -42.32378006, 0.87496930, -0.30732065, 0.23268129, 0.29298833, -0.31668544, -0.55159235, 0.57159603, 0.00000000, 0.00000000, 0.00000000, 0.00000000
1, 0.5900, 217, 0.11342736, -0.01489814, -1.28064430, 103.70310974, 107.78427887, -46.13668823, -10.11400127, -11.48786926, -84.44898987, 44.04174423, -12.85202599, -42.21720505, 0.87452114, -0.31022158, 0.23097600, 0.29261824, -0.33586115, -0.66286814, 0.57981896, 0.00000000, 0.00000000, 0.00000000, 0.00000000
1, 0.5925, 218, 0.12712653, 0.04902145, -1.28421509, 106.42404938, 109.62757111, -42.83340454, -10.11400127, -11.48786926, -84.44898987, 44.28204346, -12.58081436, -42.10021591, 0.87407464, -0.31316584, 0.22927254, 0.29215550, -0.34494290, -0.73044848, 0.58549255, 0.00000000, 0.00000000, 0.00000000, 0.00000000
1, 0.5950, 219, 0.14459665, 0.10454548, -1.29268789, 108.15244293, 109.86351776, -39.19896317, -9.67553329, -12.36480522, -84.74130249, 44.52545929, -12.31601906, -41.97510147, 0.87363011, -0.31612268, 0.22759765, 0.29160964, -0.35790014, -0.78963339, 0.59615636, 0.00000000, 0.00000000, 0.00000000, 0.00000000
1, 0.5975, 220, 0.16472894, 0.13549896, -1.29286623, 109.74284363, 109.53212738, -34.80242920, -9.67553329, -12.36480522, -84.74130249, 44.77161789, -12.06006622, -41.84156036, 0.87319052, -0.31908205, 0.22596683, 0.29097092, -0.37366593, -0.82423747, 0.59861505, 0.00000000, 0.00000000, 0.00000000, 0.00000000
1, 0.6000, 221, 0.18194832, 0.14899987, -1.27705348, 111.54998779, 109.19178009, -29.70733070, -9.67553329, -12.36480522, -84.74130249, 45.02087784, -11.81427288, -41.69839859, 0.87275851, -0.32204473, 0.22438669, 0.29022509, -0.38668814, -0.84137964, 0.58517784, 0.00000000, 0.00000000, 0.00000000, 0.00000000
1, 0.6025, 222, 0.19632247, 0.14781055, -1.25791609, 113.57144165, 109.05675507, -24.33038139, -9.67553329, -12.36480522, -84.74130249, 45.27367401, -11.57885933, -41.54482651, 0.87233508, -0.32501489, 0.22285698, 0.28936440, -0.39703900, -0.84382808, 0.56851608, 0.00000000, 0.00000000, 0.00000000, 0.00000000
1, 0.6050, 223, 0.21133170, 0.14723298, -1.22972810, 115.88230896, 108.65186310, -19.23779678, -9.67553329, -12.36480522, -84.74130249, 45.53099823, -11.35389900, -41.38193130, 0.87191486, -0.32799771, 0.22138299, 0.28839493, -0.40820026, -0.84689677, 0.54291403, 0.00000000, 0.00000000, 0.00000000, 0.00000000
1, 0.6075, 224, 0.22778037, 0.15120639, -1.20122898, 117.84098053, 107.15667725, -15.48770905, -8.59397793, -13.68021011, -84.09821320, 45.79288101, -11.13897991, -41.21416855, 0.87148643, -0.33098632, 0.21997391, 0.28735185, -0.42096996, -0.85452658, 0.51710993, 0.00000000, 0.00000000, 0.00000000, 0.00000000
1, 0.6100, 225, 0.24410732, 0.15639272, -1.17161119, 120.16646576, 104.57572937, -12.94252586, -8.59397793, -13.68021011, -84.09821320, 46.06105423, -10.93388462, -41.04573059, 0.87103415, -0.33398670, 0.21864417, 0.28626436, -0.43378353, -0.86340058, 0.49031597, 0.00000000, 0.00000000, 0.00000000, 0.00000000
1, 0.6125, 226, 0.26089233, 0.16835351, -1.14274609, 122.64877319, 100.40586090, -10.55928040, -8.59397793, -13.68021011, -84.09821320, 46.33648300, -10.74109077, -40.87987900, 0.87054819, -0.33699277, 0.21742387, 0.28514665, -0.44726366, -0.87908602, 0.46442068, 0.00000000, 0.00000000, 0.00000000, 0.00000000
1, 0.6150, 227, 0.27814490, 0.18450592, -1.11455095, 125.07066345, 94.78791046, -8.61511326, -8.59397793, -13.68021011, -84.09821320, 46.61963272, -10.56228828, -40.72012711, 0.87001961, -0.33999670, 0.21633707, 0.28401846, -0.46144933, -0.89900112, 0.43935001, 0.00000000, 0.00000000, 0.00000000, 0.00000000
1, 0.6175, 228, 0.29208022, 0.20772886, -1.09186184, 126.78130341, 88.32581329, -6.26042700, -8.59397793, -13.68021011, -84.09821320, 46.90880203, -10.39963055, -40.56742477, 0.86945236, -0.34297797, 0.21539848, 0.28288212, -0.47259307, -0.92599976, 0.41992271, 0.00000000, 0.00000000, 0.00000000, 0.00000000
1, 0.6200, 229, 0.30684254, 0.22668211, -1.07987094, 127.92055511, 81.44072723, -3.76972914, -8.12627888, -14.23560333, -83.68898010, 47.20261765, -10.25402164, -40.42245865, 0.86884987, -0.34592286, 0.21461375, 0.28174156, -0.48485520, -0.94872355, 0.41131443, 0.00000000, 0.00000000, 0.00000000, 0.00000000
1, 0.6225, 230, 0.32074893, 0.23936166, -1.07652819, 128.77186584, 74.68373871, -0.78677303, -8.12627888, -14.23560333, -83.68898010, 47.50009537, -10.12607956, -40.28427887, 0.86821830, -0.34882465, 0.21398252, 0.28058839, -0.49656370, -0.96515554, 0.41146249, 0.00000000, 0.00000000, 0.00000000, 0.00000000
1, 0.6250, 231, 0.33018875, 0.24249585, -1.07772160, 129.76101685, 68.74905396, 2.83634400, -8.12627888, -14.23560333, -83.68898010, 47.80109024, -10.01553726, -40.15042114, 0.86756462, -0.35168836, 0.21349514, 0.27940428, -0.50410390, -0.97202349, 0.41625130, 0.00000000, 0.00000000, 0.00000000, 0.00000000
1, 0.6275, 232, 0.33019224, 0.24139139, -1.07786059, 131.24180603, 64.26647186, 6.89718580, -8.12627888, -14.23560333, -83.68898010, 48.10620499, -9.92074013, -40.01755905, 0.86689466, -0.35453025, 0.21313059, 0.27816796, -0.50247800, -0.97464454, 0.42009336, 0.00000000, 0.00000000, 0.00000000, 0.00000000
1, 0.6300, 233, 0.32649007, 0.23218301, -1.07127309, 133.50201416, 61.17382431, 11.11420631, -8.12627888, -14.23560333, -83.68898010, 48.41685867, -9.83965969, -39.88294220, 0.86620945, -0.35737285, 0.21286866, 0.27686238, -0.49738157, -0.96917307, 0.41732991, 0.00000000, 0.00000000, 0.00000000, 0.00000000
1, 0.6325, 234, 0.31259668, 0.22405417, -1.06611466, 136.61436462, 59.27286148, 14.92496204, -7.39549828, -14.82022762, -83.07512665, 48.71371460, -9.76081562, -39.74201202, 0.86557418, -0.36011311, 0.21256366, 0.27552974, -0.48213217, -0.96459860, 0.41584414, 0.00000000, 0.00000000, 0.00000000, 0.00000000
1, 0.6350, 235, 0.30112740, 0.22042006, -1.05637109, 140.72747803, 57.94508362, 18.11075783, -7.39549828, -14.82022762, -83.07512665, 49.04172134, -9.69964790, -39.60108948, 0.86484122, -0.36303291, 0.21245645, 0.27407837, -0.46961069, -0.96481115, 0.41023242, 0.00000000, 0.00000000, 0.00000000, 0.00000000
1, 0.6375, 236, 0.29345083, 0.21702456, -1.03624475, 145.41645813, 56.48750687, 21.08309174, -7.39549828, -14.82022762, -83.07512665, 49.38116074, -9.64730358, -39.45769882, 0.86407238, -0.36601451, 0.21242590, 0.27255756, -0.46103361, -0.96534735, 0.39442760, 0.00000000, 0.00000000, 0.00000000, 0.00000000
1, 0.6750, 237, 0.37174553, 0.12737788, -0.46491584, 186.54499817, 49.24907684, 87.29359436, -7.74627304, -16.86641312, -79.97661591, 55.40207672, -10.04408360, -36.73758698, 0.84987092, -0.41505423, 0.21948589, 0.23932244, -0.54615128, -0.93791872, -0.09419598, 0.00000000, 0.00000000, 0.00000000, 0.00000000
1, 0.6775, 238, 0.37968576, 0.10316998, -0.43719730, 186.69201660, 51.24192047, 101.58791351, -7.74627304, -16.86641312, -79.97661591, 55.82435989, -10.18132019, -36.48450470, 0.84894663, -0.41829211, 0.22042796, 0.23607823, -0.55644965, -0.91746193, -0.11568920, 0.00000000, 0.00000000, 0.00000000, 0.00000000
1, 0.6800, 239, 0.37968576, 0.10316998, -0.43719730, 186.69201660, 51.24192047, 101.58791351, -7.74627304, -16.86641312, -79.97661591, 56.24621582, -10.32038689, -36.23234558, 0.84800297, -0.42152047, 0.22136500, 0.23282865, -0.55883801, -0.92115134, -0.10943887, 0.00000000, 0.00000000, 0.00000000, 0.00000000
1, 0.6825, 240, 0.38386324, 0.08804250, -0.36631849, 187.43521118, 59.39746094, 116.31354523, -7.74627304, -16.86641312, -79.97661591, 56.65489197, -10.47211266, -35.94159317, 0.84717286, -0.42469215, 0.22220254, 0.22926141, -0.56562012, -0.90950280, -0.17420676, 0.00000000, 0.00000000, 0.00000000, 0.00000000
1, 0.6850, 241, 0.38386324, 0.08804250, -0.36631849, 187.43521118, 59.39746094, 116.31354523, -8.06781673, -17.30488205, -78.63198090, 57.07069397, -10.63442898, -35.65342712, 0.84629542, -0.42788434, 0.22311713, 0.22564988, -0.56840527, -0.91296852, -0.16794908, 0.00000000, 0.00000000, 0.00000000, 0.00000000
1, 0.6875, 242, 0.36688790, 0.09693100, -0.28806350, 188.85859680, 63.67185593, 131.61380005, -8.06781673, -17.30488205, -78.63198090, 57.48376083, -10.82519245, -35.33609390, 0.84547877, -0.43103823, 0.22409683, 0.22170317, -0.55470103, -0.92516428, -0.23990980, 0.00000000, 0.00000000, 0.00000000, 0.00000000
1, 0.6900, 243, 0.36019045, 0.11022022, -0.24788781, 188.07286072, 64.43602753, 139.80973816, -8.06781673, -17.30488205, -78.63198090, 57.89157104, -11.03448105, -35.00715637, 0.84468961, -0.43412939, 0.22512954, 0.21759583, -0.55159020, -0.94160402, -0.27380908, 0.00000000, 0.00000000, 0.00000000, 0.00000000
1, 0.6925, 244, 0.35686830, 0.12408639, -0.21259804, 185.85829163, 64.27350616, 148.83702087, -8.06781673, -17.30488205, -78.63198090, 58.29056931, -11.26541233, -34.66767120, 0.84393936, -0.43712223, 0.22623381, 0.21332835, -0.55222237, -0.95841974, -0.30288690, 0.00000000, 0.00000000, 0.00000000, 0.00000000
1, 0.6950, 245, 0.35364902, 0.13705844, -0.18355428, 182.28675842, 63.12120819, 158.34492493, -8.06781673, -17.30488205, -78.63198090, 58.67747879, -11.52039146, -34.31935501, 0.84323692, -0.43998414, 0.22742668, 0.20890814, -0.55336565, -0.97410274, -0.32582784, 0.00000000, 0.00000000, 0.00000000, 0.00000000
1, 0.6975, 246, 0.34957880, 0.13913308, -0.16652873, 178.44032288, 60.57048798, 168.53417969, -8.27243519, -17.33411217, -77.78427124, 59.05186081, -11.80273533, -33.96456909, 0.84257996, -0.44269997, 0.22873996, 0.20433781, -0.55412161, -0.97863394, -0.33686098, 0.00000000, 0.00000000, 0.00000000, 0.00000000
1, 0.7000, 247, 0.34865120, 0.13386907, -0.15976435, 174.82131958, 56.69748688, 179.26426697, -8.27243519, -17.33411217, -77.78427124, 59.41455078, -12.11530876, -33.60573578, 0.84196037, -0.44526476, 0.23020484, 0.19961937, -0.55853105, -0.97556639, -0.33772588, 0.00000000, 0.00000000, 0.00000000, 0.00000000
1, 0.7025, 248, 0.34335735, 0.12580813, -0.15657759, 171.71710205, 51.50706863, 190.39443970, -8.27243519, -17.33411217, -77.78427124, 59.76718140, -12.46063042, -33.24550247, 0.84136635, -0.44767979, 0.23185228, 0.19475614, -0.55912602, -0.96944284, -0.33507705, 0.00000000, 0.00000000, 0.00000000, 0.00000000
1, 0.7050, 249, 0.33514810, 0.12260491, -0.15013334, 169.33467102, 45.97608566, 201.58757019, -8.27243519, -17.33411217, -77.78427124, 60.11153030, -12.83923435, -32.88482666, 0.84078735, -0.44995609, 0.23369277, 0.18974705, -0.55736434, -0.96792483, -0.33572116, 0.00000000, 0.00000000, 0.00000000, 0.00000000
1, 0.7075, 250, 0.32538280, 0.11664864, -0.14079534, 168.17471313, 40.26199341, 211.93495178, -8.27243519, -17.33411217, -77.78427124, 60.45086288, -13.24947834, -32.52548218, 0.84020406, -0.45211902, 0.23572667, 0.18460354, -0.55457425, -0.96342504, -0.33924729, 0.00000000, 0.00000000, 0.00000000, 0.00000000
1, 0.7100, 251, 0.31346914, 0.10557862, -0.12700990, 167.16050720, 34.21183777, 221.71778870, -10.17246437, -16.69102669, -76.49810028, 60.78577423, -13.69050503, -32.16920853, 0.83960849, -0.45417225, 0.23795530, 0.17933890, -0.55014622, -0.95358163, -0.34719977, 0.00000000, 0.00000000, 0.00000000, 0.00000000
1, 0.7125, 252, 0.29841009, 0.09107673, -0.11498132, 166.64840698, 28.24110603, 231.15036011, -10.17246437, -16.69102669, -76.49810028, 61.11751175, -14.16140366, -31.81654167, 0.83899188, -0.45612642, 0.24037568, 0.17395647, -0.54306430, -0.94007927, -0.35335514, 0.00000000, 0.00000000, 0.00000000, 0.00000000
1, 0.7150, 253, 0.27691740, 0.07864132, -0.10339672, 166.56466675, 22.62059593, 240.58627319, -10.17246437, -16.69102669, -76.49810028, 61.44691086, -14.66170979, -31.46694565, 0.83834893, -0.45799002, 0.24298291, 0.16845073, -0.53002894, -0.92841363, -0.35901234, 0.00000000, 0.00000000, 0.00000000, 0.00000000
1, 0.7175, 254, 0.24692793, 0.06706148, -0.09422558, 167.12562561, 17.21933746, 249.67332458, -10.17246437, -16.69102669, -76.49810028, 61.77552414, -15.19035625, -31.12062645, 0.83766979, -0.45977655, 0.24577154, 0.16282271, -0.50895458, -0.91737771, -0.36217821, 0.00000000, 0.00000000, 0.00000000, 0.00000000
1, 0.7200, 255, 0.21584663, 0.05644942, -0.08430419, 168.18891907, 11.83156681, 258.19940186, -10.17246437, -16.69102669, -76.49810028, 62.10474396, -15.74605846, -30.77849960, 0.83694452, -0.46149740, 0.24873710, 0.15708005, -0.48722091, -0.90708810, -0.36599603, 0.00000000, 0.00000000, 0.00000000, 0.00000000
1, 0.7225, 256, 0.18026730, 0.04926140, -0.07456557, 169.46391296, 6.92937326, 266.80136108, -12.62788677, -15.87255192, -74.97807312, 62.43478012, -16.32838821, -30.43962669, 0.83617026, -0.46315655, 0.25187159, 0.15121546, -0.46140957, -0.89999074, -0.36952800, 0.00000000, 0.00000000, 0.00000000, 0.00000000
1, 0.7250, 257, 0.13692617, 0.04374929, -0.06417441, 171.31231689, 2.23916554, 275.47424316, -12.62788677, -15.87255192, -74.97807312, 62.76690674, -16.93723488, -30.10368729, 0.83533937, -0.46476376, 0.25517306, 0.14522253, -0.42825013, -0.89433414, -0.37358841, 0.00000000, 0.00000000, 0.00000000, 0.00000000
1, 0.7275, 258, 0.08435889, 0.04624553, -0.04936485, 173.87475586, -1.95197451, 283.66192627, -12.62788677, -15.87255192, -74.97807312, 63.10271835, -17.57093620, -29.77036667, 0.83444226, -0.46633488, 0.25862888, 0.13910116, -0.38624525, -0.89645582, -0.38192108, 0.00000000, 0.00000000, 0.00000000, 0.00000000
1, 0.7300, 259, 0.02201112, 0.04757202, -0.02465518, 176.87178040, -6.61606026, 291.35229492, -12.62788677, -15.87255192, -74.97807312, 63.44386673, -18.22892952, -29.44165993, 0.83346647, -0.46787778, 0.26224300, 0.13286282, -0.33482549, -0.89717764, -0.39998278, 0.00000000, 0.00000000, 0.00000000, 0.00000000
1, 0.7325, 260, -0.05145213, 0.04542723, 0.00711158, 180.01492310, -11.61949635, 298.68774414, -12.62788677, -15.87255192, -74.97807312, 63.78996658, -18.91599464, -29.11910439, 0.83240891, -0.46937269, 0.26605195, 0.12649503, -0.27272931, -0.89415604, -0.42492294, 0.00000000, 0.00000000, 0.00000000, 0.00000000
1, 0.7350, 261, -0.13960190, 0.06098005, 0.05176568, 183.09028625, -17.17201233, 305.66638184, -14.82022762, -15.40485191, -72.52265167, 64.14393616, -19.62145615, -28.80468941, 0.83125275, -0.47086185, 0.26999095, 0.12005351, -0.19620232, -0.90861720, -0.46255368, 0.00000000, 0.00000000, 0.00000000, 0.00000000
1, 0.7375, 262, -0.23615070, 0.09396061, 0.10440222, 184.94436646, -22.87002373, 312.36727905, -14.82022762, -15.40485191, -72.52265167, 64.50197601, -20.35002136, -28.49947357, 0.83001024, -0.47230113, 0.27409032, 0.11353068, -0.11160353, -0.94022566, -0.50801468, 0.00000000, 0.00000000, 0.00000000, 0.00000000
1, 0.7400, 263, -0.32579184, 0.12685913, 0.15641238, 184.78970337, -29.07040405, 318.99792480, -14.82022762, -15.40485191, -72.52265167, 64.85974121, -21.10196877, -28.20506668, 0.82869542, -0.47365230, 0.27835229, 0.10694532, -0.03423697, -0.97142321, -0.55275935, 0.00000000, 0.00000000, 0.00000000, 0.00000000
1, 0.7425, 264, -0.40425503, 0.14419700, 0.19972979, 182.33677673, -35.50217819, 325.77285767, -14.82022762, -15.40485191, -72.52265167, 65.21193695, -21.87775421, -27.92213821, 0.82732815, -0.47487184, 0.28277650, 0.10031181, 0.03162765, -0.98667842, -0.58879834, 0.00000000, 0.00000000, 0.00000000, 0.00000000
1, 0.7450, 265, -0.48286179, 0.15665826, 0.23148628, 178.51759338, -41.87856674, 332.62295532, -14.82022762, -15.40485191, -72.52265167, 65.55532074, -22.67733002, -27.65068817, 0.82591987, -0.47593397, 0.28735921, 0.09363747, 0.09732096, -0.99664032, -0.61330950, 0.00000000, 0.00000000, 0.00000000, 0.00000000
1, 0.7475, 266, -0.55735999, 0.16761561, 0.25795686, 174.97911072, -47.54891968, 338.78231812, -17.50950050, -13.24174213, -71.47032928, 65.89052582, -23.49824142, -27.38995171, 0.82446808, -0.47684914, 0.29208088, 0.08692671, 0.15863925, -1.00468874, -0.63256443, 0.00000000, 0.00000000, 0.00000000, 0.00000000
1, 0.7500, 267, -0.63583362, 0.16452208, 0.27701083, 171.00747681, -53.07712936, 344.45535278, -17.50950050, -13.24174213, -71.47032928, 66.21679688, -24.33909416, -27.14026260, 0.82297450, -0.47761226, 0.29693264, 0.08019055, 0.22369766, -0.99826992, -0.64444596, 0.00000000, 0.00000000, 0.00000000, 0.00000000
1, 0.7525, 268, -0.70985091, 0.15404570, 0.31524980, 165.66642761, -58.26421738, 349.64801025, -17.50950050, -13.24174213, -71.47032928, 66.53089142, -25.19829559, -26.90143013, 0.82145262, -0.47820231, 0.30190083, 0.07344402, 0.28409865, -0.98403239, -0.67560667, 0.00000000, 0.00000000, 0.00000000, 0.00000000
1, 0.7550, 269, -0.78220856, 0.11827976, 0.35150972, 159.09306335, -62.21644211, 354.86141968, -17.50950050, -13.24174213, -71.47032928, 66.82863617, -26.07453156, -26.67032814, 0.81992143, -0.47859886, 0.30696166, 0.06668321, 0.34266883, -0.94404519, -0.70494527, 0.00000000, 0.00000000, 0.00000000, 0.00000000
1, 0.7575, 270, -0.86140484, 0.07746925, 0.40310323, 152.72023010, -64.42913055, 359.67810059, -17.50950050, -13.24174213, -71.47032928, 67.10884857, -26.96504402, -26.44283485, 0.81838799, -0.47881037, 0.31208020, 0.05989707, 0.40795815, -0.89855993, -0.74979639, 0.00000000, 0.00000000, 0.00000000, 0.00000000
1, 0.7600, 271, -0.95707411, 0.05022064, 0.47253457, 146.18450928, -64.61000824, 362.91427612, -19.70184135, -10.84478188, -69.71645355, 67.36951447, -27.86415291, -26.21521378, 0.81686467, -0.47884715, 0.31720397, 0.05309506, 0.48969752, -0.86621130, -0.81270862, 0.00000000, 0.00000000, 0.00000000, 0.00000000
1, 0.7625, 272, -1.06069517, 0.02734132, 0.56062305, 139.06240845, -63.79396439, 364.06762695, -19.70184135, -10.84478188, -69.71645355, 67.60880280, -28.76600647, -25.98675346, 0.81536192, -0.47871432, 0.32229334, 0.04630930, 0.57946163, -0.83784252, -0.89454222, 0.00000000, 0.00000000, 0.00000000, 0.00000000
1, 0.7650, 273, -1.15391922, -0.00507780, 0.66589624, 131.15525818, -64.05575562, 362.83102417, -19.70184135, -10.84478188, -69.71645355, 67.82720947, -29.66605186, -25.76247787, 0.81387877, -0.47841403, 0.32734278, 0.03960046, 0.65897560, -0.79959029, -0.99382997, 0.00000000, 0.00000000, 0.00000000, 0.00000000
1, 0.7675, 274, -1.22682357, -0.05285666, 0.77724695, 120.74243927, -65.77527618, 360.32391357, -19.70184135, -10.84478188, -69.71645355, 68.02108002, -30.56260109, -25.54725838, 0.81243140, -0.47791094, 0.33236405, 0.03302559, 0.71834421, -0.74563587, -1.09951758, 0.00000000, 0.00000000, 0.00000000, 0.00000000
1, 0.7700, 275, -1.29391289, -0.10216977, 0.88599610, 107.38979340, -68.48396301, 357.32336426, -19.70184135, -10.84478188, -69.71645355, 68.18479156, -31.45529366, -25.34391403, 0.81104469, -0.47715765, 0.33736929, 0.02662665, 0.77207994, -0.68978864, -1.20300114, 0.00000000, 0.00000000, 0.00000000, 0.00000000
1, 0.7725, 276, -1.41756642, -0.14213063, 1.08799660, 92.02984619, -71.96317291, 353.68957520, -22.65419388, -6.08009338, -68.83952332, 68.31492615, -32.34321976, -25.15480042, 0.80973572, -0.47612527, 0.34236670, 0.02043948, 0.88257676, -0.64293635, -1.40017617, 0.00000000, 0.00000000, 0.00000000, 0.00000000
1, 0.7750, 277, -1.45164430, -0.19326349, 1.17123330, 75.45093536, -75.86482239, 349.77413940, -22.65419388, -6.08009338, -68.83952332, 68.40943146, -33.22595596, -24.98097610, 0.80851567, -0.47479671, 0.34736279, 0.01448450, 0.90370262, -0.58456045, -1.47904801, 0.00000000, 0.00000000, 0.00000000, 0.00000000
1, 0.7775, 278, -1.45164430, -0.19326349, 1.17123330, 75.45093536, -75.86482239, 349.77413940, -22.65419388, -6.08009338, -68.83952332, 68.50167847, -34.10892105, -24.80712318, 0.80724388, -0.47343782, 0.35233670, 0.00852859, 0.89087677, -0.57710612, -1.47466445, 0.00000000, 0.00000000, 0.00000000, 0.00000000
1, 0.7800, 279, -1.46250641, -0.33433235, 1.24950171, 11.71777725, -97.64077759, 344.79141235, -22.65419388, -6.08009338, -68.83952332, 68.46965790, -35.00035095, -24.69903374, 0.80641192, -0.47096133, 0.35760885, 0.00337469, 0.88892549, -0.42765898, -1.55012500, 0.00000000, 0.00000000, 0.00000000, 0.00000000
1, 0.7825, 280, -1.46250641, -0.33433235, 1.24950171, 11.71777725, -97.64077759, 344.79141235, -22.65419388, -6.08009338, -68.83952332, 68.43999481, -35.89555359, -24.59187698, 0.80550641, -0.46846950, 0.36289468, -0.00179449, 0.87619710, -0.41907561, -1.54718924, 0.00000000, 0.00000000, 0.00000000, 0.00000000
1, 0.7850, 281, -1.53703511, -0.50356328, 1.25586188, -27.78983498, -110.17239380, 343.21191406, -25.13884735, -3.36159015, -67.37796021, 68.32633209, -36.79468536, -24.51733780, 0.80487972, -0.46525371, 0.36832818, -0.00647967, 0.93808597, -0.24060994, -1.55160856, 0.00000000, 0.00000000, 0.00000000, 0.00000000
1, 0.7875, 282, -1.60313809, -0.56660295, 1.24965549, -44.01206207, -113.78934479, 339.01953125, -25.13884735, -3.36159015, -67.37796021, 68.17845154, -37.68729401, -24.45478058, 0.80433929, -0.46175846, 0.37376213, -0.01092377, 0.99178696, -0.16805229, -1.54381800, 0.00000000, 0.00000000, 0.00000000, 0.00000000
1, 0.7900, 283, -1.67164612, -0.60646284, 1.23794341, -58.65961075, -117.00579834, 332.30950928, -25.13884735, -3.36159015, -67.37796021, 68.00149536, -38.56719589, -24.40569115, 0.80387247, -0.45803338, 0.37916547, -0.01509762, 1.04821444, -0.11848912, -1.53082180, 0.00000000, 0.00000000, 0.00000000, 0.00000000
1, 0.7925, 284, -1.73164141, -0.62082464, 1.22550440, -71.86677551, -120.80668640, 323.97830200, -25.13884735, -3.36159015, -67.37796021, 67.80168915, -39.43124008, -24.37369156, 0.80346072, -0.45411935, 0.38453382, -0.01897724, 1.09648991, -0.09431471, -1.51732302, 0.00000000, 0.00000000, 0.00000000, 0.00000000
1, 0.7950, 285, -1.77107310, -0.63200682, 1.20366287, -83.99245453, -125.07447815, 315.14758301, -25.13884735, -3.36159015, -67.37796021, 67.58355713, -40.27881241, -24.36096191, 0.80308986, -0.45004198, 0.38987198, -0.02255696, 1.12456560, -0.07325272, -1.49458694, 0.00000000, 0.00000000, 0.00000000, 0.00000000
1, 0.7975, 286, -1.78821528, -0.66156197, 1.15839911, -95.53925323, -129.62922668, 307.29028320, -26.48348427, 1.84156680, -67.29026794, 67.34893799, -41.11256409, -24.36746025, 0.80275106, -0.44580534, 0.39519596, -0.02585478, 1.13067496, -0.03374404, -1.44855464, 0.00000000, 0.00000000, 0.00000000, 0.00000000
1, 0.8000, 287, -1.78448904, -0.70636255, 1.10271668, -105.72149658, -133.84260559, 300.55212402, -26.48348427, 1.84156680, -67.29026794, 67.10025787, -41.93487930, -24.39102364, 0.80243307, -0.44142547, 0.40051141, -0.02890436, 1.11620390, 0.02108686, -1.39218533, 0.00000000, 0.00000000, 0.00000000, 0.00000000
1, 0.8025, 288, -1.78717875, -0.76370502, 1.03646874, -113.54776001, -135.96878052, 294.60400391, -26.48348427, 1.84156680, -67.29026794, 66.83889771, -42.74565887, -24.42442894, 0.80213016, -0.43693691, 0.40578908, -0.03175932, 1.10843384, 0.08851968, -1.32531142, 0.00000000, 0.00000000, 0.00000000, 0.00000000
1, 0.8050, 289, -1.80696905, -0.81006753, 0.97922200, -117.87701416, -135.14419556, 288.05496216, -26.48348427, 1.84156680, -67.29026794, 66.56810760, -43.54069138, -24.45938683, 0.80183589, -0.43240580, 0.41097042, -0.03446745, 1.11809993, 0.14496100, -1.26747954, 0.00000000, 0.00000000, 0.00000000, 0.00000000
1, 0.8075, 290, -1.83588934, -0.83983821, 0.92799133, -120.20590973, -133.16114807, 279.48684692, -26.48348427, 1.84156680, -67.29026794, 66.29238892, -44.31422043, -24.49512863, 0.80154473, -0.42788604, 0.41601592, -0.03702168, 1.13729692, 0.18470207, -1.21568036, 0.00000000, 0.00000000, 0.00000000, 0.00000000
1, 0.8100, 291, -1.85919929, -0.86305910, 0.89346832, -121.10250092, -130.79324341, 269.31063843, -27.94504547, 3.59543991, -65.56562042, 66.01622772, -45.06219482, -24.53293419, 0.80125070, -0.42341915, 0.42090446, -0.03941004, 1.15132570, 0.21770528, -1.18058002, 0.00000000, 0.00000000, 0.00000000, 0.00000000
1, 0.8125, 292, -1.88347769, -0.88859195, 0.85695672, -120.99304962, -128.41259766, 258.92147827, -27.94504547, 3.59543991, -65.56562042, 65.74264526, -45.78416824, -24.57350922, 0.80094790, -0.41902715, 0.42563510, -0.04163790, 1.16676021, 0.25279945, -1.14345908, 0.00000000, 0.00000000, 0.00000000, 0.00000000
1, 0.8150, 293, -1.89769804, -0.90061903, 0.83358425, -118.79791260, -126.15097809, 248.52392578, -27.94504547, 3.59543991, -65.56562042, 65.47754669, -46.48025131, -24.61775780, 0.80061913, -0.41474897, 0.43020988, -0.04372326, 1.17256141, 0.27412754, -1.11939001, 0.00000000, 0.00000000, 0.00000000, 0.00000000
1, 0.8175, 294, -1.91201687, -0.92618555, 0.80267280, -115.60001373, -123.39969635, 238.40946960, -27.94504547, 3.59543991, -65.56562042, 65.22242737, -47.15061951, -24.66421890, 0.80026329, -0.41060153, 0.43462393, -0.04568501, 1.17887306, 0.30871850, -1.08768964, 0.00000000, 0.00000000, 0.00000000, 0.00000000
1, 0.8200, 295, -1.92623568, -0.94136834, 0.77644140, -110.90195465, -119.52539825, 228.23539734, -27.94504547, 3.59543991, -65.56562042, 64.97875214, -47.79396820, -24.70979118, 0.79988098, -0.40661269, 0.43885756, -0.04754661, 1.18550229, 0.33261728, -1.06058204, 0.00000000, 0.00000000, 0.00000000, 0.00000000
1, 0.8225, 296, -1.94136500, -0.94019067, 0.74924040, -105.06175995, -114.79853821, 217.36975098, -27.94504547, 3.59543991, -65.56562042, 64.74841309, -48.40783310, -24.75319481, 0.79947472, -0.40281034, 0.44289058, -0.04931476, 1.19347644, 0.33979940, -1.03242397, 0.00000000, 0.00000000, 0.00000000, 0.00000000
1, 0.8250, 297, -1.94584608, -0.92640781, 0.72954237, -99.86296082, -110.76788330, 206.35687256, -29.11429405, 6.43086815, -64.89330292, 64.53208160, -48.99260712, -24.79754639, 0.79904777, -0.39918768, 0.44673657, -0.05097488, 1.19122159, 0.33401257, -1.01169395, 0.00000000, 0.00000000, 0.00000000, 0.00000000
1, 0.8275, 298, -1.94696951, -0.89428890, 0.71830541, -95.15597534, -107.99810028, 195.95797729, -29.11429405, 6.43086815, -64.89330292, 64.33148956, -49.55104828, -24.84678459, 0.79859465, -0.39573351, 0.45042527, -0.05252221, 1.18598545, 0.30954218, -0.99932957, 0.00000000, 0.00000000, 0.00000000, 0.00000000
1, 0.8300, 299, -1.95308900, -0.85384923, 0.70818365, -91.37376404, -106.28659058, 186.24714661, -29.11429405, 6.43086815, -64.89330292, 64.14681244, -50.08586502, -24.90403938, 0.79811543, -0.39242810, 0.45398390, -0.05395089, 1.18608260, 0.27642918, -0.98798156, 0.00000000, 0.00000000, 0.00000000, 0.00000000
1, 0.8325, 300, -1.95951629, -0.82551026, 0.70166546, -89.44652557, -106.06520081, 177.71115112, -29.11429405, 6.43086815, -64.89330292, 63.97964859, -50.60324478, -24.97564125, 0.79759800, -0.38923696, 0.45747024, -0.05525528, 1.18674719, 0.25515646, -0.98009700, 0.00000000, 0.00000000, 0.00000000, 0.00000000
1, 0.8350, 301, -1.97593081, -0.81205601, 0.70117182, -89.24311829, -105.81046295, 170.44017029, -29.11429405, 6.43086815, -64.89330292, 63.81806564, -51.10227203, -25.05497169, 0.79708523, -0.38610613, 0.46086109, -0.05643123, 1.19766307, 0.24855113, -0.97823024, 0.00000000, 0.00000000, 0.00000000, 0.00000000
1, 0.8375, 302, -2.00758266, -0.80620861, 0.70328134, -90.05374146, -104.53645325, 163.81579590, -29.90353584, 10.58170128, -64.04560089, 63.65939331, -51.58516312, -25.14007187, 0.79658228, -0.38301754, 0.46416461, -0.05749331, 1.22405052, 0.24937147, -0.97897917, 0.00000000, 0.00000000, 0.00000000, 0.00000000
1, 0.8400, 303, -2.04526138, -0.80779713, 0.70761108, -91.66669464, -101.88397980, 157.14279175, -29.90353584, 10.58170128, -64.04560089, 63.49800873, -52.05031967, -25.22629547, 0.79611123, -0.37995711, 0.46735853, -0.05844403, 1.25671065, 0.25744969, -0.98202860, 0.00000000, 0.00000000, 0.00000000, 0.00000000
1, 0.8425, 304, -2.07950020, -0.82300413, 0.71111429, -94.64416504, -99.51023102, 149.77104187, -29.90353584, 10.58170128, -64.04560089, 63.33237076, -52.49650192, -25.31603622, 0.79568231, -0.37690935, 0.47044447, -0.05925485, 1.28618443, 0.27895629, -0.98435736, 0.00000000, 0.00000000, 0.00000000, 0.00000000
1, 0.8450, 305, -2.11203599, -0.84295160, 0.71136439, -98.41098022, -97.41091919, 141.76873779, -29.90353584, 10.58170128, -64.04560089, 63.16239929, -52.92260742, -25.41163445, 0.79530096, -0.37386838, 0.47342393, -0.05990422, 1.31421459, 0.30499601, -0.98354900, 0.00000000, 0.00000000, 0.00000000, 0.00000000
1, 0.8475, 306, -2.14179516, -0.86162919, 0.70967299, -102.17839813, -95.36876678, 132.99627686, -29.90353584, 10.58170128, -64.04560089, 62.98963928, -53.32702255, -25.51499176, 0.79496861, -0.37084320, 0.47629279, -0.06037805, 1.33973789, 0.32952702, -0.98091406, 0.00000000, 0.00000000, 0.00000000, 0.00000000
1, 0.8500, 307, -2.16816258, -0.87725288, 0.71046537, -106.44904327, -93.39397430, 123.80490875, -29.31891251, 11.92633724, -62.81789017, 62.81394577, -53.70890427, -25.62745667, 0.79468954, -0.36783046, 0.47905040, -0.06066302, 1.36214256, 0.35075212, -0.98088831, 0.00000000, 0.00000000, 0.00000000, 0.00000000
1, 0.8525, 308, -2.19853926, -0.88885838, 0.71267170, -111.29334259, -91.62895203, 114.40275574, -29.31891251, 11.92633724, -62.81789017, 62.63512421, -54.06808853, -25.75052071, 0.79446733, -0.36482361, 0.48170051, -0.06074752, 1.38882470, 0.36770201, -0.98240876, 0.00000000, 0.00000000, 0.00000000, 0.00000000
1, 0.8550, 309, -2.23002648, -0.89094090, 0.71918076, -116.71148682, -90.07153320, 104.64997864, -29.31891251, 11.92633724, -62.81789017, 62.45329666, -54.40406799, -25.88602066, 0.79430473, -0.36181745, 0.48424548, -0.06061747, 1.41688466, 0.37486178, -0.98836970, 0.00000000, 0.00000000, 0.00000000, 0.00000000
1, 0.8575, 310, -2.26518965, -0.86913598, 0.73913819, -122.12256622, -89.40980530, 94.60527039, -29.31891251, 11.92633724, -62.81789017, 62.27207184, -54.71726990, -26.03831482, 0.79419297, -0.35881722, 0.48669943, -0.06026049, 1.44887805, 0.35785323, -1.00788581, 0.00000000, 0.00000000, 0.00000000, 0.00000000
1, 0.8600, 311, -2.28946376, -0.83883750, 0.76189172, -128.02369690, -90.40679169, 84.05007935, -29.31891251, 11.92633724, -62.81789017, 62.09673309, -55.00859070, -26.21528435, 0.79411876, -0.35582271, 0.48908851, -0.05964925, 1.47022593, 0.33205402, -1.03025699, 0.00000000, 0.00000000, 0.00000000, 0.00000000
1, 0.8625, 312, -2.29293394, -0.83903629, 0.77472645, -136.05976868, -93.86151123, 74.37777710, -30.07892418, 13.12481689, -61.99941635, 61.92882156, -55.28290176, -26.42517471, 0.79407048, -0.35279125, 0.49146527, -0.05875697, 1.47096026, 0.33650821, -1.04272723, 0.00000000, 0.00000000, 0.00000000, 0.00000000
1, 0.8650, 313, -2.27803826, -0.87623304, 0.76716125, -146.37786865, -99.23349762, 66.36547852, -30.07892418, 13.12481689, -61.99941635, 61.76659012, -55.54623413, -26.67260551, 0.79404134, -0.34966806, 0.49387863, -0.05757294, 1.45345569, 0.37779951, -1.03479385, 0.00000000, 0.00000000, 0.00000000, 0.00000000
1, 0.8675, 314, -2.27840853, -0.92394787, 0.75079030, -156.41697693, -103.43894958, 59.20738983, -30.07892418, 13.12481689, -61.99941635, 61.60612869, -55.79919434, -26.95182228, 0.79403836, -0.34644720, 0.49631411, -0.05612364, 1.45133626, 0.42947322, -1.01808393, 0.00000000, 0.00000000, 0.00000000, 0.00000000
1, 0.8700, 315, -2.29408455, -0.96299291, 0.69902390, -165.39413452, -105.82096863, 51.23125458, -30.07892418, 13.12481689, -61.99941635, 61.44610977, -56.03791428, -27.25784492, 0.79407215, -0.34315351, 0.49873212, -0.05441990, 1.46467757, 0.47229770, -0.96604812, 0.00000000, 0.00000000, 0.00000000, 0.00000000
1, 0.8725, 316, -2.32294917, -0.99662465, 0.65995377, -173.15956116, -107.26292419, 41.44547272, -30.07892418, 13.12481689, -61.99941635, 61.29008865, -56.25734711, -27.59123802, 0.79414397, -0.33982661, 0.50110108, -0.05245026, 1.49140882, 0.50944805, -0.92678523, 0.00000000, 0.00000000, 0.00000000, 0.00000000
1, 0.8750, 317, -2.32708263, -0.99997717, 0.61775279, -180.08663940, -107.81438446, 19.56938553, -30.25431061, 14.03098488, -61.53171539, 61.15933990, -56.42998505, -27.97503090, 0.79426956, -0.33661240, 0.50331479, -0.05002069, 1.49387217, 0.51560748, -0.88448536, 0.00000000, 0.00000000, 0.00000000, 0.00000000
1, 0.8775, 318, -2.32708263, -0.99997717, 0.61775279, -180.08663940, -107.81438446, 19.56938553, -30.25431061, 14.03098488, -61.53171539, 61.03007507, -56.60308456, -28.35984421, 0.79437858, -0.33339107, 0.50551796, -0.04759007, 1.49220550, 0.51841515, -0.88435709, 0.00000000, 0.00000000, 0.00000000, 0.00000000
1, 0.8800, 319, -2.32069516, -0.98692948, 0.51504922, -196.33543396, -111.09406281, -1.68376303, -30.25431061, 14.03098488, -61.53171539, 60.91160202, -56.73417282, -28.80551338, 0.79457355, -0.33011839, 0.50762874, -0.04458699, 1.48456073, 0.50759029, -0.78171933, 0.00000000, 0.00000000, 0.00000000, 0.00000000
1, 0.8825, 320, -2.32069516, -0.98692948, 0.51504922, -196.33543396, -111.09406281, -1.68376303, -30.25431061, 14.03098488, -61.53171539, 60.79683304, -56.86677933, -29.25411987, 0.79474097, -0.32684129, 0.50973761, -0.04158455, 1.48329365, 0.50981569, -0.78173423, 0.00000000, 0.00000000, 0.00000000, 0.00000000
1, 0.8850, 321, -2.29940295, -0.96736187, 0.38235438, -202.82551575, -112.20639801, -22.86948204, -30.25431061, 14.03098488, -61.53171539, 60.70823288, -56.95394135, -29.75358200, 0.79494995, -0.32367656, 0.51169741, -0.03813187, 1.46117091, 0.49177274, -0.64915311, 0.00000000, 0.00000000, 0.00000000, 0.00000000
1, 0.8875, 322, -2.27753544, -0.95192403, 0.30678350, -204.42626953, -111.64206696, -33.27766800, -30.34200478, 13.91405964, -60.62554932, 60.63438416, -57.01811600, -30.27498055, 0.79516429, -0.32059130, 0.51356190, -0.03448380, 1.43869281, 0.47749767, -0.57373428, 0.00000000, 0.00000000, 0.00000000, 0.00000000
1, 0.8900, 323, -2.25725651, -0.93498904, 0.22916146, -204.87750244, -110.93400574, -43.33796692, -30.34200478, 13.91405964, -60.62554932, 60.57683945, -57.05985260, -30.81684113, 0.79537630, -0.31760192, 0.51533055, -0.03066019, 1.41801763, 0.46136323, -0.49628842, 0.00000000, 0.00000000, 0.00000000, 0.00000000
1, 0.8925, 324, -2.23951173, -0.91483939, 0.15807028, -204.46922302, -109.80686188, -53.11563110, -30.34200478, 13.91405964, -60.62554932, 60.53555679, -57.07915115, -31.37667084, 0.79558331, -0.31472030, 0.51699775, -0.02667850, 1.40008998, 0.44165260, -0.42539936, 0.00000000, 0.00000000, 0.00000000, 0.00000000
1, 0.8950, 325, -2.22074676, -0.90591526, 0.08998230, -203.20231628, -108.12435150, -62.46892548, -30.34200478, 13.91405964, -60.62554932, 60.50968933, -57.07621384, -31.95103836, 0.79578447, -0.31195664, 0.51855677, -0.02255958, 1.38135290, 0.43281171, -0.35754627, 0.00000000, 0.00000000, 0.00000000, 0.00000000
1, 0.8975, 326, -2.19713378, -0.89514917, 0.02362335, -201.22050476, -105.95154572, -71.74797058, -30.34200478, 13.91405964, -60.62554932, 60.49883270, -57.05051041, -32.53749466, 0.79597992, -0.30932286, 0.51999998, -0.01831617, 1.35798383, 0.42176858, -0.29146227, 0.00000000, 0.00000000, 0.00000000, 0.00000000
1, 0.9000, 327, -2.17640305, -0.88535428, -0.03590151, -198.52465820, -103.15328979, -80.74111938, -30.45892906, 13.09558582, -59.25167847, 60.50170135, -57.00181198, -33.13251114, 0.79617095, -0.30682841, 0.52131873, -0.01396556, 1.33771563, 0.41133976, -0.23226485, 0.00000000, 0.00000000, 0.00000000, 0.00000000
1, 0.9025, 328, -2.15045214, -0.89168811, -0.07478821, -195.25996399, -99.52651215, -89.23529816, -30.45892906, 13.09558582, -59.25167847, 60.51551056, -56.93012619, -33.73125458, 0.79636252, -0.30447793, 0.52250260, -0.00952844, 1.31244636, 0.41669568, -0.19378012, 0.00000000, 0.00000000, 0.00000000, 0.00000000
1, 0.9050, 329, -2.13261032, -0.88962978, -0.10131008, -191.86096191, -94.72463989, -97.50417328, -30.45892906, 13.09558582, -59.25167847, 60.53575516, -56.83443451, -34.32811356, 0.79656714, -0.30227178, 0.52353376, -0.00501805, 1.29551733, 0.41332459, -0.16777840, 0.00000000, 0.00000000, 0.00000000, 0.00000000
1, 0.9075, 330, -2.12061858, -0.87450790, -0.12334308, -188.96830750, -89.57799530, -105.97651672, -30.45892906, 13.09558582, -59.25167847, 60.55990601, -56.71384048, -34.92172623, 0.79679137, -0.30020410, 0.52440542, -0.00042727, 1.28467906, 0.39655620, -0.14640988, 0.00000000, 0.00000000, 0.00000000, 0.00000000
1, 0.9100, 331, -2.10845780, -0.86648345, -0.13900861, -186.36541748, -84.15817261, -114.37428284, -30.45892906, 13.09558582, -59.25167847, 60.58574677, -56.56817245, -35.51047134, 0.79703969, -0.29826987, 0.52511418, 0.00424422, 1.27391624, 0.38656038, -0.13157186, 0.00000000, 0.00000000, 0.00000000, 0.00000000
1, 0.9125, 332, -2.10024452, -0.86474991, -0.14584194, -183.90979004, -78.26052094, -122.41539764, -29.46506882, 12.89096737, -59.07629395, 60.61016846, -56.39760208, -36.09123230, 0.79731810, -0.29646322, 0.52565449, 0.00898892, 1.26734662, 0.38254878, -0.12575187, 0.00000000, 0.00000000, 0.00000000, 0.00000000
1, 0.9150, 333, -2.09638453, -0.86526132, -0.15184535, -182.10397339, -72.02272797, -130.44976807, -29.46506882, 12.89096737, -59.07629395, 60.63005447, -56.20175552, -36.66236115, 0.79763395, -0.29477355, 0.52602094, 0.01381208, 1.26538348, 0.38048783, -0.12097584, 0.00000000, 0.00000000, 0.00000000, 0.00000000
1, 0.9175, 334, -2.09036088, -0.87222946, -0.16992739, -181.23519897, -65.57717133, -139.03776550, -29.46506882, 12.89096737, -59.07629395, 60.64307022, -55.97921371, -37.22398376, 0.79799426, -0.29319161, 0.52620625, 0.01873289, 1.26152658, 0.38458440, -0.10436404, 0.00000000, 0.00000000, 0.00000000, 0.00000000
1, 0.9200, 335, -2.07973886, -0.89525735, -0.20696092, -181.02142334, -58.16832352, -147.61058044, -29.46506882, 12.89096737, -59.07629395, 60.64413834, -55.72885513, -37.77208710, 0.79841304, -0.29170686, 0.52619350, 0.02375260, 1.25335729, 0.40445548, -0.06909412, 0.00000000, 0.00000000, 0.00000000, 0.00000000
1, 0.9225, 336, -2.07410359, -0.91751194, -0.24812710, -180.38827515, -49.30365753, -156.02511597, -29.46506882, 12.89096737, -59.07629395, 60.62921143, -55.44934845, -38.30062103, 0.79890293, -0.29032624, 0.52595848, 0.02885453, 1.25047886, 0.42327461, -0.03002973, 0.00000000, 0.00000000, 0.00000000, 0.00000000
1, 0.9250, 337, -2.08117294, -0.90768713, -0.28425485, -178.25816345, -39.09289551, -165.47540283, -29.99123001, 11.13709450, -59.10552216, 60.59960556, -55.13684464, -38.80669022, 0.79946774, -0.28908929, 0.52547193, 0.03403122, 1.26065373, 0.40968728, 0.00364152, 0.00000000, 0.00000000, 0.00000000, 0.00000000
1, 0.9275, 338, -2.08661246, -0.86923063, -0.31029403, -175.20042419, -28.29643822, -176.38955688, -29.99123001, 11.13709450, -59.10552216, 60.55840302, -54.78749466, -39.29131699, 0.80010545, -0.28803036, 0.52471513, 0.03929413, 1.26959372, 0.36708498, 0.02686883, 0.00000000, 0.00000000, 0.00000000, 0.00000000
1, 0.9300, 339, -2.07593608, -0.82546771, -0.33249682, -172.41934204, -18.88082886, -187.74113464, -29.99123001, 11.13709450, -59.10552216, 60.50999069, -54.40207291, -39.76075745, 0.80079931, -0.28714919, 0.52370900, 0.04466297, 1.26281476, 0.31878924, 0.04594830, 0.00000000, 0.00000000, 0.00000000, 0.00000000
1, 0.9325, 340, -2.04484963, -0.79124379, -0.35158816, -170.34036255, -11.28968430, -197.99612427, -29.99123001, 11.13709450, -59.10552216, 60.45655060, -53.98632050, -40.21988678, 0.80152845, -0.28641590, 0.52249843, 0.05013375, 1.23597312, 0.27971321, 0.06166563, 0.00000000, 0.00000000, 0.00000000, 0.00000000
1, 0.9350, 341, -2.01302648, -0.75899345, -0.36997801, -168.89062500, -5.59596825, -206.87599182, -29.99123001, 11.13709450, -59.10552216, 60.39922714, -53.54342270, -40.67227173, 0.80228019, -0.28580984, 0.52111006, 0.05571054, 1.20871949, 0.24233174, 0.07646380, 0.00000000, 0.00000000, 0.00000000, 0.00000000
1, 0.9375, 342, -1.97841299, -0.72807163, -0.38912711, -168.00680542, -0.88793504, -215.06797791, -29.20198822, 8.59397793, -59.74861145, 60.33856583, -53.07715988, -41.12041473, 0.80304205, -0.28530815, 0.51957113, 0.06138938, 1.17896819, 0.20605057, 0.09183684, 0.00000000, 0.00000000, 0.00000000, 0.00000000
1, 0.9400, 343, -1.94175971, -0.69935745, -0.41662359, -167.69943237, 4.01914358, -223.04556274, -29.20198822, 8.59397793, -59.74861145, 60.27215195, -52.58779907, -41.56317520, 0.80381787, -0.28489852, 0.51787817, 0.06717172, 1.14747453, 0.17177093, 0.11535339, 0.00000000, 0.00000000, 0.00000000, 0.00000000
1, 0.9425, 344, -1.89479172, -0.67560852, -0.44605017, -167.89482117, 8.91712856, -230.74183655, -29.20198822, 8.59397793, -59.74861145, 60.19831085, -52.07598877, -42.00013733, 0.80460835, -0.28456876, 0.51603156, 0.07305823, 1.10596561, 0.14227501, 0.14058608, 0.00000000, 0.00000000, 0.00000000, 0.00000000
1, 0.9450, 345, -1.84248972, -0.65123063, -0.47474489, -168.01327515, 13.25748825, -238.16618347, -29.20198822, 8.59397793, -59.74861145, 60.11837006, -51.54303741, -42.43284225, 0.80540472, -0.28431615, 0.51404202, 0.07904655, 1.05941439, 0.11198497, 0.16489461, 0.00000000, 0.00000000, 0.00000000, 0.00000000
1, 0.9475, 346, -1.78777325, -0.61783642, -0.49695227, -168.05574036, 17.17650604, -245.17684937, -29.20198822, 8.59397793, -59.74861145, 60.03304672, -50.99039841, -42.86204147, 0.80619997, -0.28413641, 0.51191884, 0.08513095, 1.01073313, 0.07253464, 0.18254110, 0.00000000, 0.00000000, 0.00000000, 0.00000000
1, 0.9500, 347, -1.73322928, -0.55939901, -0.50802249, -167.51954651, 20.62062454, -252.47563171, -28.35428238, 6.46009922, -61.06401443, 59.94545746, -50.41805267, -43.29001999, 0.80698210, -0.28404176, 0.50966877, 0.09131271, 0.96251541, 0.00788730, 0.18890640, 0.00000000, 0.00000000, 0.00000000, 0.00000000
1, 0.9525, 348, -1.67279553, -0.47613764, -0.50784922, -166.90040588, 22.74880409, -259.72256470, -28.35428238, 6.46009922, -61.06401443, 59.85904694, -49.82777023, -43.72112656, 0.80773348, -0.28403014, 0.50731474, 0.09759790, 0.90868694, -0.08172929, 0.18393186, 0.00000000, 0.00000000, 0.00000000, 0.00000000
1, 0.9550, 349, -1.61066341, -0.34598097, -0.49376407, -166.83656311, 22.57908058, -266.50927734, -28.35428238, 6.46009922, -61.06401443, 59.77732468, -49.22344971, -44.16198730, 0.80843067, -0.28408119, 0.50489825, 0.10399850, 0.85340130, -0.21835622, 0.16501270, 0.00000000, 0.00000000, 0.00000000, 0.00000000
1, 0.9575, 350, -1.54293942, -0.18084300, -0.47390044, -168.31890869, 18.42387962, -271.80627441, -28.35428238, 6.46009922, -61.06401443, 59.70368195, -48.61331940, -44.62252045, 0.80904031, -0.28414139, 0.50249457, 0.11052957, 0.79267508, -0.39000177, 0.14037463, 0.00000000, 0.00000000, 0.00000000, 0.00000000
1, 0.9600, 351, -1.42959058, -0.04294243, -0.46896651, -173.27622986, 9.12870312, -273.80450439, -28.35428238, 6.46009922, -61.06401443, 59.63649750, -48.01098251, -45.11263275, 0.80953401, -0.28409952, 0.50020581, 0.11720242, 0.68631780, -0.53428471, 0.13080323, 0.00000000, 0.00000000, 0.00000000, 0.00000000
1, 0.9625, 352, -1.27515233, 0.01216637, -0.51597399, -182.28819275, -4.44138718, -270.60192871, -28.35428238, 6.46009922, -61.06401443, 59.56779480, -47.43310165, -45.63569260, 0.80990297, -0.28381452, 0.49812829, 0.12399524, 0.53866464, -0.59542197, 0.17333892, 0.00000000, 0.00000000, 0.00000000, 0.00000000
1, 0.9650, 353, -1.11659694, -0.01083674, -0.61025411, -193.89115906, -16.98936844, -263.46038818, -27.47734642, 3.33235884, -62.02864456, 59.48277283, -46.88698578, -46.18078995, 0.81018549, -0.28319857, 0.49626002, 0.13085938, 0.38659018, -0.57793063, 0.26320496, 0.00000000, 0.00000000, 0.00000000, 0.00000000
1, 0.9675, 354, -1.02290893, -0.00362448, -0.85326403, -203.59468079, -24.47256470, -255.76678467, -27.47734642, 3.33235884, -62.02864456, 59.37377548, -46.36758041, -46.73104858, 0.81042749, -0.28229195, 0.49451846, 0.13773210, 0.29912758, -0.59015197, 0.50173843, 0.00000000, 0.00000000, 0.00000000, 0.00000000
1, 0.9700, 355, -0.91137564, -0.00919149, -0.96135587, -209.16221619, -28.34725189, -250.48565674, -27.47734642, 3.33235884, -62.02864456, 59.24656296, -45.86524582, -47.28002548, 0.81063634, -0.28120384, 0.49283588, 0.14458835, 0.19367179, -0.58923334, 0.60528147, 0.00000000, 0.00000000, 0.00000000, 0.00000000
1, 0.9725, 356, -0.87937379, -0.00938186, -1.06712508, -212.15907288, -30.31297302, -246.16624451, -27.47734642, 3.33235884, -62.02864456, 59.10490417, -45.37560272, -47.82393265, 0.81081504, -0.27999580, 0.49118012, 0.15140516, 0.16764700, -0.59340227, 0.70643616, 0.00000000, 0.00000000, 0.00000000, 0.00000000
1, 0.9750, 357, -0.87937379, -0.00938186, -1.06712508, -212.15907288, -30.31297302, -246.16624451, -27.47734642, 3.33235884, -62.02864456, 58.95791245, -44.88691330, -48.36489868, 0.81095248, -0.27877355, 0.48949939, 0.15821427, 0.17366421, -0.59765393, 0.70177376, 0.00000000, 0.00000000, 0.00000000, 0.00000000
1, 0.9775, 358, -0.83709639, 0.02841354, -1.24711871, -208.90306091, -30.69260216, -233.31304932, -26.62964058, 1.31540489, -62.78865814, 58.79844666, -44.42725372, -48.88105392, 0.81107080, -0.27745667, 0.48789087, 0.16475581, 0.13709348, -0.63925326, 0.87715811, 0.00000000, 0.00000000, 0.00000000, 0.00000000
1, 0.9800, 359, -0.83709639, 0.02841354, -1.24711871, -208.90306091, -30.69260216, -233.31304932, -26.62964058, 1.31540489, -62.78865814, 58.63447571, -43.96862793, -49.39498520, 0.81115091, -0.27612674, 0.48625940, 0.17128959, 0.14283228, -0.64295685, 0.87250727, 0.00000000, 0.00000000, 0.00000000, 0.00000000
1, 0.9825, 360, -0.83238459, 0.05082540, -1.36910474, -200.07640076, -27.86244774, -227.49850464, -26.62964058, 1.31540489, -62.78865814, 58.46585083, -43.52053833, -49.88183975, 0.81122357, -0.27484584, 0.48459914, 0.17759432, 0.14377025, -0.66887236, 0.98985791, 0.00000000, 0.00000000, 0.00000000, 0.00000000
1, 0.9850, 361, -0.81157434, 0.04454818, -1.42227721, -192.76155090, -25.46624756, -225.81135559, -26.62964058, 1.31540489, -62.78865814, 58.31383133, -43.07314682, -50.36287308, 0.81121814, -0.27371719, 0.48293880, 0.18377753, 0.12864304, -0.66614342, 1.03857923, 0.00000000, 0.00000000, 0.00000000, 0.00000000
1, 0.9875, 362, -0.80111128, 0.04311670, -1.44785976, -184.81610107, -21.12315559, -224.23974609, -26.62964058, 1.31540489, -62.78865814, 58.16715240, -42.62429047, -50.82658768, 0.81118381, -0.27271873, 0.48122287, 0.18981567, 0.12392354, -0.66825408, 1.05976176, 0.00000000, 0.00000000, 0.00000000, 0.00000000
1, 0.9900, 363, -0.79121906, 0.04711219, -1.45759475, -176.37988281, -15.38182259, -223.21031189, -25.22654152, -1.69541073, -63.60713196, 58.02528381, -42.17088318, -51.27013779, 0.81113172, -0.27187178, 0.47942734, 0.19570537, 0.11987521, -0.67581284, 1.06512463, 0.00000000, 0.00000000, 0.00000000, 0.00000000
1, 0.9925, 364, -0.77475846, 0.04947088, -1.46248019, -167.87504578, -9.28923702, -222.45610046, -25.22654152, -1.69541073, -63.60713196, 57.88841248, -41.71179581, -51.69327164, 0.81106550, -0.27118313, 0.47754666, 0.20144925, 0.10937458, -0.68176836, 1.06566250, 0.00000000, 0.00000000, 0.00000000, 0.00000000
1, 0.9950, 365, -0.75764292, 0.04024585, -1.46522260, -159.94406128, -3.34159732, -221.63203430, -25.22654152, -1.69541073, -63.60713196, 57.75567627, -41.24727249, -52.09656525, 0.81098849, -0.27064255, 0.47558317, 0.20705341, 0.09833311, -0.67616397, 1.06407619, 0.00000000, 0.00000000, 0.00000000, 0.00000000
1, 0.9975, 366, -0.74096304, 0.02209607, -1.46296847, -151.87226868, 2.95467234, -220.87362671, -25.22654152, -1.69541073, -63.60713196, 57.62722778, -40.77663803, -52.47940445, 0.81090420, -0.27025589, 0.47353256, 0.21251599, 0.08785138, -0.66166592, 1.05751133, 0.00000000, 0.00000000, 0.00000000, 0.00000000
1, 1.0000, 367, -0.73153776, 0.00177776, -1.45755553, -144.02072144, 9.80282784, -220.10704041, -25.22654152, -1.69541073, -63.60713196, 57.50189972, -40.29907990, -52.84054184, 0.81082076, -0.27002290, 0.47138590, 0.21783644, 0.08476046, -0.64502817, 1.04778957, 0.00000000, 0.00000000, 0.00000000, 0.00000000
1, 1.0025, 368, -0.72547770, -0.02242911, -1.44779623, -136.46229553, 17.21208572, -219.96131897, -24.49576187, -3.59543991, -64.51329803, 57.37907410, -39.81245041, -53.17979431, 0.81074339, -0.26994854, 0.46912962, 0.22302584, 0.08520131, -0.62454504, 1.03370595, 0.00000000, 0.00000000, 0.00000000, 0.00000000
1, 1.0050, 369, -0.72134006, -0.04586628, -1.43227780, -128.91368103, 25.67198944, -220.57067871, -24.49576187, -3.59543991, -64.51329803, 57.25815582, -39.31366730, -53.49595261, 0.81067938, -0.27004650, 0.46674195, 0.22809185, 0.08777481, -0.60489613, 1.01382434, 0.00000000, 0.00000000, 0.00000000, 0.00000000
1, 1.0425, 370, 0.26351154, 0.26051927, -1.09600532, 2.80322409, 65.05088806, -228.99992371, -18.56182289, -10.40631390, -68.37181854, 56.88996506, -30.29900932, -56.57802963, 0.80634707, -0.29595006, 0.42023411, 0.29261112, -0.76802409, -0.98372650, 0.62437165, 0.00000000, 0.00000000, 0.00000000, 0.00000000
1, 1.0450, 371, 0.33140001, 0.30805492, -1.04507113, 8.45355701, 60.98312759, -222.42924500, -18.56182289, -10.40631390, -68.37181854, 57.01250839, -29.74976921, -56.78069305, 0.80542141, -0.29852355, 0.41777387, 0.29604903, -0.82761288, -1.03629255, 0.57237375, 0.00000000, 0.00000000, 0.00000000, 0.00000000
1, 1.0475, 372, 0.41071525, 0.35708696, -0.98326212, 12.32064533, 55.30062103, -215.52493286, -18.56182289, -10.40631390, -68.37181854, 57.14327240, -29.22234917, -56.98378372, 0.80444372, -0.30105805, 0.41547313, 0.29936013, -0.89891541, -1.09020782, 0.50976992, 0.00000000, 0.00000000, 0.00000000, 0.00000000
1, 1.0500, 373, 0.50827879, 0.37298411, -0.93690574, 12.83353233, 47.12150192, -205.98577881, -18.56182289, -10.40631390, -68.37181854, 57.27495193, -28.72564125, -57.18937302, 0.80343276, -0.30345491, 0.41337264, 0.30254617, -0.98889488, -1.11072397, 0.46282941, 0.00000000, 0.00000000, 0.00000000, 0.00000000
1, 1.0525, 374, 0.60582018, 0.33892831, -0.91367614, 9.91721249, 36.98360825, -192.82511902, -16.98333740, -13.12481689, -68.60566711, 57.39873123, -28.26991844, -57.39683914, 0.80242050, -0.30560902, 0.41150948, 0.30558896, -1.07944608, -1.08088779, 0.43915004, 0.00000000, 0.00000000, 0.00000000, 0.00000000
1, 1.0550, 375, 0.68756682, 0.27138123, -0.90058053, 5.13008213, 27.41733932, -177.48242188, -16.98333740, -13.12481689, -68.60566711, 57.50801849, -27.85902786, -57.60187531, 0.80144304, -0.30747262, 0.40987727, 0.30846477, -1.15486455, -1.01709032, 0.42565814, 0.00000000, 0.00000000, 0.00000000, 0.00000000
1, 1.0575, 376, 0.72967124, 0.19518642, -0.89743412, 1.32683015, 20.37060356, -163.22781372, -16.98333740, -13.12481689, -68.60566711, 57.60360336, -27.48733330, -57.80054474, 0.80051261, -0.30909047, 0.40843242, 0.31116822, -1.19122386, -0.94423074, 0.42214209, 0.00000000, 0.00000000, 0.00000000, 0.00000000
1, 1.0600, 377, 0.74553019, 0.14735131, -0.88280201, -0.34909490, 16.30252266, -152.15702820, -16.98333740, -13.12481689, -68.60566711, 57.69008636, -27.14417648, -57.99090195, 0.79962283, -0.31054914, 0.40711704, 0.31371701, -1.20176148, -0.89943486, 0.40717223, 0.00000000, 0.00000000, 0.00000000, 0.00000000
1, 1.0625, 378, 0.74074888, 0.11021715, -0.86661971, -0.75249964, 14.36539745, -143.71923828, -16.98333740, -13.12481689, -68.60566711, 57.77040863, -26.82120132, -58.17209244, 0.79876792, -0.31190929, 0.40588555, 0.31613198, -1.19195676, -0.86513036, 0.39068076, 0.00000000, 0.00000000, 0.00000000, 0.00000000
1, 1.0650, 379, 0.72357976, 0.07651374, -0.85365880, -0.59188932, 13.56011772, -136.45690918, -16.63256264, -14.20637226, -69.57029724, 57.84580231, -26.51444244, -58.34336472, 0.79794729, -0.31319940, 0.40471476, 0.31842148, -1.17000294, -0.83408678, 0.37743458, 0.00000000, 0.00000000, 0.00000000, 0.00000000
1, 1.0675, 380, 0.66592020, 0.05390466, -0.83005834, -0.22014102, 13.30965519, -129.11781311, -16.63256264, -14.20637226, -69.57029724, 57.91635513, -26.22336197, -58.50347137, 0.79716617, -0.31442681, 0.40359771, 0.32057899, -1.10779190, -0.81397545, 0.35356900, 0.00000000, 0.00000000, 0.00000000, 0.00000000
1, 1.0700, 381, 0.63840896, 0.02552001, -0.82273811, 0.51253217, 12.85703468, -121.92250824, -16.63256264, -14.20637226, -69.57029724, 57.98348999, -25.94795990, -58.65323257, 0.79642028, -0.31559804, 0.40253991, 0.32260552, -1.07596374, -0.78794068, 0.34601912, 0.00000000, 0.00000000, 0.00000000, 0.00000000
1, 1.0725, 382, 0.61373955, 0.01002190, -0.82158071, 1.61612678, 11.97260284, -109.06914520, -16.63256264, -14.20637226, -69.57029724, 58.04513931, -25.70082664, -58.78548431, 0.79574436, -0.31666732, 0.40159112, 0.32440308, -1.04741168, -0.77454931, 0.34468797, 0.00000000, 0.00000000, 0.00000000, 0.00000000
1, 1.0750, 383, 0.61373955, 0.01002190, -0.82158071, 1.61612678, 11.97260284, -109.06914520, -16.63256264, -14.20637226, -69.57029724, 58.10603714, -25.45358086, -58.91718292, 0.79506391, -0.31773475, 0.40064007, 0.32619876, -1.04351938, -0.77663767, 0.34451634, 0.00000000, 0.00000000, 0.00000000, 0.00000000
