SensorId, TimeStamp (s), FrameNumber, AccX (g), AccY (g), AccZ (g), GyroX (deg/s), GyroY (deg/s), GyroZ (deg/s), MagX (uT), MagY (uT), MagZ (uT), EulerX (deg), EulerY (deg), EulerZ (deg), QuatW, QuatX, QuatY, QuatZ, LinAccX (g), LinAccY (g), LinAccZ (g), Pressure (kPa), Altitude (m), Temperature (degC), HeaveMotion (m)
1, 0.0000, 0, 0.95641345, 0.30988324, 0.08363652, -0.68608057, -1.09443176, 0.85728216, 56.67933273, 5.75855017, -62.61326981, -107.78494263, 72.10665894, 147.02087402, -0.32069942, 0.51795971, 0.52786463, -0.59180111, -0.00478345, -0.01732028, 0.01021015, 0.00000000, 0.00000000, 0.00000000, 0.00000000
1, 0.0025, 1, 0.95423561, 0.30525285, 0.08002637, -0.82901019, -1.23095429, 0.64607787, 56.50394440, 5.58316278, -62.35018921, -107.77947998, 72.10915375, 147.02879333, -0.32073131, 0.51794547, 0.52785945, -0.59180093, -0.00259227, -0.01272011, 0.01377985, 0.00000000, 0.00000000, 0.00000000, 0.00000000
1, 0.0050, 2, 0.95292205, 0.30165270, 0.08205131, -0.89973837, -1.37010074, 0.64442223, 56.50394440, 5.58316278, -62.35018921, -107.77313232, 72.11174011, 147.03781128, -0.32076555, 0.51792890, 0.52785420, -0.59180152, -0.00126481, -0.00915030, 0.01170947, 0.00000000, 0.00000000, 0.00000000, 0.00000000
1, 0.0075, 3, 0.94967461, 0.29753625, 0.08517207, -1.04328847, -1.37364066, 0.78472358, 56.50394440, 5.58316278, -62.35018921, -107.76747131, 72.11462402, 147.04650879, -0.32080331, 0.51791292, 0.52784920, -0.59179956, 0.00199807, -0.00507084, 0.00854498, 0.00000000, 0.00000000, 0.00000000, 0.00000000
1, 0.0100, 4, 0.94715267, 0.29512659, 0.08953945, -1.04311943, -1.31209278, 1.27513826, 56.50394440, 5.58316278, -62.35018921, -107.76342773, 72.11868286, 147.05349731, -0.32084665, 0.51790339, 0.52783906, -0.59179342, 0.00454175, -0.00271839, 0.00413650, 0.00000000, 0.00000000, 0.00000000, 0.00000000
1, 0.0125, 5, 0.94680154, 0.29325691, 0.09122232, -1.11677492, -1.04130661, 1.62875128, 56.50394440, 5.58316278, -62.35018921, -107.76239014, 72.12335205, 147.05752563, -0.32089227, 0.51790088, 0.52782780, -0.59178090, 0.00491792, -0.00092086, 0.00242469, 0.00000000, 0.00000000, 0.00000000, 0.00000000
1, 0.0150, 6, 0.94995570, 0.29326117, 0.09194911, -1.11609161, -1.11164272, 1.69773543, 56.59164047, 6.08009338, -62.20403290, -107.76099396, 72.12823486, 147.06193542, -0.32093960, 0.51789826, 0.52781528, -0.59176874, 0.00178993, -0.00100014, 0.00166600, 0.00000000, 0.00000000, 0.00000000, 0.00000000
1, 0.0175, 7, 0.95019519, 0.29351681, 0.09134154, -1.26331472, -0.69756013, 1.70383155, 56.59164047, 6.08009338, -62.20403290, -107.76303864, 72.13282013, 147.06309509, -0.32098392, 0.51790005, 0.52780747, -0.59175014, 0.00157499, -0.00133172, 0.00226076, 0.00000000, 0.00000000, 0.00000000, 0.00000000
1, 0.0200, 8, 0.94994247, 0.29319385, 0.08803778, -1.40791178, -0.56372356, 1.91593933, 56.59164047, 6.08009338, -62.20403290, -107.76692200, 72.13783264, 147.06271362, -0.32103106, 0.51790500, 0.52780008, -0.59172690, 0.00185454, -0.00109407, 0.00555901, 0.00000000, 0.00000000, 0.00000000, 0.00000000
1, 0.0225, 9, 0.95019406, 0.29012915, 0.08750156, -1.40791178, -0.56372356, 1.91593933, 56.59164047, 6.08009338, -62.20403290, -107.77082825, 72.14279938, 147.06231689, -0.32107818, 0.51790988, 0.52779263, -0.59170359, 0.00162953, 0.00188529, 0.00608981, 0.00000000, 0.00000000, 0.00000000, 0.00000000
1, 0.0250, 10, 0.94997019, 0.28641817, 0.08903378, -1.26256895, -0.70524979, 2.19330549, 56.59164047, 6.08009338, -62.20403290, -107.77395630, 72.14856720, 147.06233215, -0.32112888, 0.51791722, 0.52777916, -0.59168166, 0.00188428, 0.00549999, 0.00454433, 0.00000000, 0.00000000, 0.00000000, 0.00000000
1, 0.0275, 11, 0.94780356, 0.28004619, 0.08686331, -0.97692329, -0.43000787, 2.47586441, 56.27009583, 6.16778708, -62.08710861, -107.77909088, 72.15478516, 147.05950928, -0.32117680, 0.51793331, 0.52776080, -0.59165794, 0.00408417, 0.01176521, 0.00670940, 0.00000000, 0.00000000, 0.00000000, 0.00000000
1, 0.0300, 12, 0.94828510, 0.27836594, 0.08414825, -0.54499435, -0.43257028, 2.89405870, 56.27009583, 6.16778708, -62.08710861, -107.76603699, 72.17746735, 147.07124329, -0.32132196, 0.51797956, 0.52762944, -0.59165585, 0.00372386, 0.01310769, 0.00924294, 0.00000000, 0.00000000, 0.00000000, 0.00000000
1, 0.0325, 13, 0.94790375, 0.28207064, 0.08286157, -0.18578079, -0.30062452, 3.52413440, 56.27009583, 6.16778708, -62.08710861, -107.77263641, 72.18609619, 147.06480408, -0.32137299, 0.51801497, 0.52758986, -0.59163243, 0.00415129, 0.00925586, 0.01051948, 0.00000000, 0.00000000, 0.00000000, 0.00000000
1, 0.0350, 14, 0.94875294, 0.28437343, 0.08546124, 0.17458610, -0.30715394, 4.15232897, 56.27009583, 6.16778708, -62.08710861, -107.77977753, 72.19622040, 147.05683899, -0.32142815, 0.51806003, 0.52753854, -0.59160882, 0.00335616, 0.00678128, 0.00790477, 0.00000000, 0.00000000, 0.00000000, 0.00000000
1, 0.0375, 15, 0.94911015, 0.28609756, 0.08536471, 0.60489148, -0.10310216, 4.64327002, 56.27009583, 6.16778708, -62.08710861, -107.78855133, 72.20737457, 147.04605103, -0.32148242, 0.51811635, 0.52747744, -0.59158432, 0.00305843, 0.00486666, 0.00798934, 0.00000000, 0.00000000, 0.00000000, 0.00000000
1, 0.0400, 16, 0.95442641, 0.28970590, 0.08406489, 0.96566588, -0.24041705, 4.78010893, 56.15317154, 6.63548660, -62.20403290, -107.79573822, 72.21893311, 147.03594971, -0.32153597, 0.51817507, 0.52740926, -0.59156466, -0.00219619, 0.00106359, 0.00926691, 0.00000000, 0.00000000, 0.00000000, 0.00000000
1, 0.0425, 17, 0.95985568, 0.29552898, 0.08267654, 1.18278372, -0.38017336, 4.98732471, 56.15317154, 6.63548660, -62.20403290, -107.80185699, 72.23107910, 147.02642822, -0.32159135, 0.51823586, 0.52733493, -0.59154755, -0.00756073, -0.00496197, 0.01062449, 0.00000000, 0.00000000, 0.00000000, 0.00000000
1, 0.0450, 18, 0.96334469, 0.30049825, 0.08017933, 1.25492227, -0.44544390, 4.77638292, 56.15317154, 6.63548660, -62.20403290, -107.80683136, 72.24279022, 147.01791382, -0.32164392, 0.51829392, 0.52726161, -0.59153348, -0.01098740, -0.01012466, 0.01308741, 0.00000000, 0.00000000, 0.00000000, 0.00000000
1, 0.0475, 19, 0.96804357, 0.30863237, 0.08029423, 1.32595146, -0.43598431, 4.21675920, 56.15317154, 6.63548660, -62.20403290, -107.81035614, 72.25315857, 147.01072693, -0.32168835, 0.51834613, 0.52719378, -0.59152406, -0.01563108, -0.01842863, 0.01293767, 0.00000000, 0.00000000, 0.00000000, 0.00000000
1, 0.0500, 20, 0.96804357, 0.30863237, 0.08029423, 1.32595146, -0.43598431, 4.21675920, 56.15317154, 6.63548660, -62.20403290, -107.81388092, 72.26352692, 147.00355530, -0.32173276, 0.51839828, 0.52712590, -0.59151459, -0.01557595, -0.01859850, 0.01290278, 0.00000000, 0.00000000, 0.00000000, 0.00000000
1, 0.0525, 21, 0.96961194, 0.31218323, 0.08181175, 0.89731359, -0.91039521, 3.30250525, 56.38702011, 5.67085648, -62.02864456, -107.81275940, 72.27210999, 147.00234985, -0.32177570, 0.51843089, 0.52707064, -0.59151208, -0.01709873, -0.02228290, 0.01133610, 0.00000000, 0.00000000, 0.00000000, 0.00000000
1, 0.0550, 22, 0.96961194, 0.31218323, 0.08181175, 0.89731359, -0.91039521, 3.30250525, 56.38702011, 5.67085648, -62.02864456, -107.81165314, 72.28065491, 147.00117493, -0.32181859, 0.51846337, 0.52701527, -0.59150946, -0.01705331, -0.02241647, 0.01128699, 0.00000000, 0.00000000, 0.00000000, 0.00000000
1, 0.0575, 23, 0.96823138, 0.31563976, 0.07172510, 0.68143708, -1.03660393, 2.39227843, 56.38702011, 5.67085648, -62.02864456, -107.80794525, 72.28713989, 147.00328064, -0.32185370, 0.51848233, 0.52697217, -0.59151226, -0.01563830, -0.02596969, 0.02132192, 0.00000000, 0.00000000, 0.00000000, 0.00000000
1, 0.0600, 24, 0.96944177, 0.31601587, 0.07160618, 0.46814290, -1.37931347, 2.03862810, 56.38702011, 5.67085648, -62.02864456, -107.80137634, 72.29305267, 147.00895691, -0.32189056, 0.51849121, 0.52693343, -0.59151894, -0.01681734, -0.02642856, 0.02137762, 0.00000000, 0.00000000, 0.00000000, 0.00000000
1, 0.0625, 25, 0.96668047, 0.31226000, 0.07546466, 0.39882502, -1.72287726, 1.82437551, 56.38702011, 5.67085648, -62.02864456, -107.79190063, 72.29870605, 147.01785278, -0.32192940, 0.51849270, 0.52689552, -0.59153014, -0.01402599, -0.02274689, 0.01744249, 0.00000000, 0.00000000, 0.00000000, 0.00000000
1, 0.0650, 26, 0.96426386, 0.31173274, 0.07717229, 0.18427098, -1.92601323, 1.40268171, 56.38702011, 5.78778124, -62.14557266, -107.78044128, 72.30349731, 147.02938843, -0.32196754, 0.51848531, 0.52686375, -0.59154421, -0.01158393, -0.02227724, 0.01565250, 0.00000000, 0.00000000, 0.00000000, 0.00000000
1, 0.1000, 27, 0.92487788, 0.26194319, 0.09885286, -2.33043885, -1.77146149, 3.30137920, 56.76702499, 6.10932446, -61.32709503, -107.55171204, 72.35342407, 147.32292175, -0.32276374, 0.51791978, 0.52675265, -0.59170473, 0.02806652, 0.02708942, -0.00743454, 0.00000000, 0.00000000, 0.00000000, 0.00000000
1, 0.1025, 28, 0.92789882, 0.26344961, 0.09764776, -2.33341002, -1.29778373, 4.00721359, 56.29932785, 4.88161373, -61.88248825, -107.55731964, 72.36392212, 147.32316589, -0.32285675, 0.51793265, 0.52672833, -0.59166437, 0.02510113, 0.02540699, -0.00625403, 0.00000000, 0.00000000, 0.00000000, 0.00000000
1, 0.1050, 29, 0.92885441, 0.26569256, 0.09584718, -2.48072052, -0.75621128, 4.71443987, 56.29932785, 4.88161373, -61.88248825, -107.56903839, 72.37576294, 147.31736755, -0.32295433, 0.51795954, 0.52670169, -0.59161115, 0.02420813, 0.02295810, -0.00445369, 0.00000000, 0.00000000, 0.00000000, 0.00000000
1, 0.1075, 30, 0.93381393, 0.26757503, 0.09476607, -2.62510467, -0.62457162, 5.06639719, 56.29932785, 4.88161373, -61.88248825, -107.58296967, 72.38831329, 147.30961609, -0.32305655, 0.51799124, 0.52667391, -0.59155232, 0.01931494, 0.02085444, -0.00336541, 0.00000000, 0.00000000, 0.00000000, 0.00000000
1, 0.1100, 31, 0.93719029, 0.27057022, 0.09272765, -2.76765156, -0.70174319, 5.48545694, 56.29932785, 4.88161373, -61.88248825, -107.59768677, 72.40190125, 147.30145264, -0.32316667, 0.51802570, 0.52664268, -0.59148979, 0.01601028, 0.01762003, -0.00132133, 0.00000000, 0.00000000, 0.00000000, 0.00000000
1, 0.1125, 32, 0.94323778, 0.27295458, 0.09128540, -2.91019893, -0.77891475, 5.90451717, 56.29932785, 4.88161373, -61.88248825, -107.61317444, 72.41657257, 147.29283142, -0.32328472, 0.51806295, 0.52660799, -0.59142351, 0.01004016, 0.01497844, 0.00012502, 0.00000000, 0.00000000, 0.00000000, 0.00000000
1, 0.1150, 33, 0.94661039, 0.27475366, 0.08690692, -3.20065284, -0.37166789, 6.26068926, 56.29932785, 4.58930111, -61.15171051, -107.63333893, 72.43177032, 147.28007507, -0.32340595, 0.51810753, 0.52657592, -0.59134680, 0.00674766, 0.01290622, 0.00452823, 0.00000000, 0.00000000, 0.00000000, 0.00000000
1, 0.1175, 34, 0.94840294, 0.27632046, 0.08106176, -3.34409642, -0.37630635, 6.47091579, 56.29932785, 4.58930111, -61.15171051, -107.65438080, 72.44744873, 147.26679993, -0.32353154, 0.51815343, 0.52654326, -0.59126699, 0.00503767, 0.01105684, 0.01039976, 0.00000000, 0.00000000, 0.00000000, 0.00000000
1, 0.1200, 35, 0.94936842, 0.27743289, 0.08095462, -3.19943690, -0.44749656, 6.67929792, 56.29932785, 4.58930111, -61.15171051, -107.67501068, 72.46370697, 147.25354004, -0.32365900, 0.51820177, 0.52650583, -0.59118813, 0.00415772, 0.00965381, 0.01052827, 0.00000000, 0.00000000, 0.00000000, 0.00000000
1, 0.1225, 36, 0.95264256, 0.27647352, 0.08032224, -2.76404786, -0.86548424, 7.09184742, 56.29932785, 4.58930111, -61.15171051, -107.69246674, 72.48126221, 147.24246216, -0.32379168, 0.51825261, 0.52645516, -0.59111607, 0.00097585, 0.01030692, 0.01115932, 0.00000000, 0.00000000, 0.00000000, 0.00000000
1, 0.1250, 37, 0.95540774, 0.27948675, 0.07681898, -2.32825184, -1.41425765, 7.01304102, 56.29932785, 4.58930111, -61.15171051, -107.70450592, 72.49905396, 147.23594666, -0.32392469, 0.51829845, 0.52639592, -0.59105575, -0.00169587, 0.00699258, 0.01463285, 0.00000000, 0.00000000, 0.00000000, 0.00000000
1, 0.1275, 38, 0.95999020, 0.28542006, 0.07604504, -2.03491473, -2.16769242, 6.65216541, 56.62086868, 4.58930111, -61.32709503, -107.70928192, 72.51654053, 147.23628235, -0.32405835, 0.51833254, 0.52633160, -0.59100986, -0.00618660, 0.00077429, 0.01534208, 0.00000000, 0.00000000, 0.00000000, 0.00000000
1, 0.1300, 39, 0.96593267, 0.28761670, 0.07912144, -1.88858783, -2.50924182, 6.43723583, 56.62086868, 5.34931278, -61.32709503, -107.69406891, 72.53607178, 147.25549316, -0.32421193, 0.51834214, 0.52623916, -0.59099960, -0.01202673, -0.00170785, 0.01209090, 0.00000000, 0.00000000, 0.00000000, 0.00000000
1, 0.1325, 40, 0.97053713, 0.29055330, 0.08160091, -1.52546251, -2.98725176, 6.21974611, 56.62086868, 5.34931278, -61.32709503, -107.69026947, 72.55316925, 147.26347351, -0.32434365, 0.51836419, 0.52616727, -0.59097183, -0.01654190, -0.00490949, 0.00950602, 0.00000000, 0.00000000, 0.00000000, 0.00000000
1, 0.1350, 41, 0.97234321, 0.29436675, 0.08202219, -1.16428053, -3.25535226, 5.86522961, 56.62086868, 5.34931278, -61.32709503, -107.68269348, 72.56960297, 147.27445984, -0.32446980, 0.51838136, 0.52609295, -0.59095377, -0.01826179, -0.00897172, 0.00896381, 0.00000000, 0.00000000, 0.00000000, 0.00000000
1, 0.1375, 42, 0.97657710, 0.29708707, 0.08229956, -0.65944213, -3.52101135, 5.44033670, 56.62086868, 5.34931278, -61.32709503, -107.67077637, 72.58522034, 147.28868103, -0.32458782, 0.51839375, 0.52601504, -0.59094751, -0.02241409, -0.01192114, 0.00854808, 0.00000000, 0.00000000, 0.00000000, 0.00000000
1, 0.1400, 43, 0.97609043, 0.30012113, 0.08491315, -0.37082499, -3.71944690, 5.01706219, 56.62086868, 5.34931278, -61.32709503, -107.65559387, 72.59999084, 147.30557251, -0.32469937, 0.51840073, 0.52593672, -0.59094977, -0.02185029, -0.01516557, 0.00578428, 0.00000000, 0.00000000, 0.00000000, 0.00000000
1, 0.1425, 44, 0.97536123, 0.30351752, 0.08789938, -0.22503076, -4.05550337, 4.45250750, 56.50394440, 4.64776373, -61.59017944, -107.63608551, 72.61367798, 147.32659912, -0.32480583, 0.51839793, 0.52586055, -0.59096152, -0.02104968, -0.01874814, 0.00263202, 0.00000000, 0.00000000, 0.00000000, 0.00000000
1, 0.1450, 45, 0.97089732, 0.29953393, 0.08992489, -0.08038990, -4.25308466, 3.88983512, 56.50394440, 4.64776373, -61.59017944, -107.61330414, 72.62619781, 147.35069275, -0.32490569, 0.51838714, 0.52578741, -0.59098113, -0.01652050, -0.01492691, 0.00043030, 0.00000000, 0.00000000, 0.00000000, 0.00000000
1, 0.1475, 46, 0.96971786, 0.29503405, 0.09474631, -0.29836005, -4.10454035, 3.12322068, 56.50394440, 4.64776373, -61.59017944, -107.59034729, 72.63669586, 147.37553406, -0.32499641, 0.51836795, 0.52572685, -0.59100199, -0.01528633, -0.01055831, -0.00455825, 0.00000000, 0.00000000, 0.00000000, 0.00000000
1, 0.1500, 47, 0.96971786, 0.29503405, 0.09474631, -0.29836005, -4.10454035, 3.12322068, 56.50394440, 4.64776373, -61.59017944, -107.56732941, 72.64724731, 147.40040588, -0.32508713, 0.51834875, 0.52566630, -0.59102285, -0.01523137, -0.01068950, -0.00472553, 0.00000000, 0.00000000, 0.00000000, 0.00000000
1, 0.1525, 48, 0.97193485, 0.29320538, 0.10302321, -0.73490226, -3.54807782, 2.71255279, 56.50394440, 4.64776373, -61.59017944, -107.54865265, 72.65636444, 147.42189026, -0.32517111, 0.51832891, 0.52561992, -0.59103531, -0.01740074, -0.00897676, -0.01314110, 0.00000000, 0.00000000, 0.00000000, 0.00000000
1, 0.1550, 49, 0.97193485, 0.29320538, 0.10302321, -0.73490226, -3.54807782, 2.71255279, 56.24086380, 5.52470016, -61.38555908, -107.52993774, 72.66555023, 147.44343567, -0.32525507, 0.51830900, 0.52557349, -0.59104770, -0.01735324, -0.00909257, -0.01327975, 0.00000000, 0.00000000, 0.00000000, 0.00000000
1, 0.1575, 50, 0.97059065, 0.29602957, 0.10282480, -0.16721420, -2.83385301, 1.67128074, 56.24086380, 5.52470016, -61.38555908, -107.51276398, 72.67166138, 147.46186829, -0.32531101, 0.51829052, 0.52553672, -0.59106600, -0.01597721, -0.01198703, -0.01319719, 0.00000000, 0.00000000, 0.00000000, 0.00000000
1, 0.1600, 51, 0.96574336, 0.29442650, 0.10158821, 0.04469493, -2.47686243, 1.11590815, 56.24086380, 5.52470016, -61.38555908, -107.49639893, 72.67617798, 147.47889709, -0.32535326, 0.51827163, 0.52550584, -0.59108657, -0.01110643, -0.01043034, -0.01206439, 0.00000000, 0.00000000, 0.00000000, 0.00000000
1, 0.1625, 52, 0.96210432, 0.29357177, 0.09999401, -0.31996569, -1.91972816, 0.70501429, 56.24086380, 5.52470016, -61.38555908, -107.48422241, 72.67930603, 147.49247742, -0.32538798, 0.51825273, 0.52548838, -0.59109962, -0.00745112, -0.00960621, -0.01054619, 0.00000000, 0.00000000, 0.00000000, 0.00000000
1, 0.1650, 53, 0.95592672, 0.29001155, 0.09763041, -0.68362343, -1.43622553, 0.57287908, 56.24086380, 5.52470016, -61.38555908, -107.47631836, 72.68174744, 147.50254822, -0.32541955, 0.51823592, 0.52548051, -0.59110397, -0.00126082, -0.00607255, -0.00823397, 0.00000000, 0.00000000, 0.00000000, 0.00000000
1, 0.1675, 54, 0.95399511, 0.28657842, 0.09635983, -1.18852437, -1.23321307, 0.57728225, 56.85472107, 5.26161957, -61.00555420, -107.47123718, 72.68404388, 147.51097107, -0.32545456, 0.51821816, 0.52548057, -0.59110022, 0.00068271, -0.00266802, -0.00700010, 0.00000000, 0.00000000, 0.00000000, 0.00000000
1, 0.1700, 55, 0.95060629, 0.28411829, 0.09535153, -1.76498783, -1.03416741, 0.79168582, 56.85472107, 5.26161957, -61.00555420, -107.46965027, 72.68672180, 147.51727295, -0.32549661, 0.51820135, 0.52548707, -0.59108603, 0.00408542, -0.00024775, -0.00601301, 0.00000000, 0.00000000, 0.00000000, 0.00000000
1, 0.1725, 56, 0.95242548, 0.28266919, 0.09410364, -2.41636634, -0.42476216, 1.29165900, 56.85472107, 5.26161957, -61.00555420, -107.47553253, 72.69010162, 147.51744080, -0.32554546, 0.51819348, 0.52550060, -0.59105396, 0.00228381, 0.00113815, -0.00475293, 0.00000000, 0.00000000, 0.00000000, 0.00000000
1, 0.1750, 57, 0.94941950, 0.28061730, 0.09908848, -2.77902102, -0.01489109, 1.43828237, 56.85472107, 5.26161957, -61.00555420, -107.48583984, 72.69354248, 147.51391602, -0.32559559, 0.51819009, 0.52552003, -0.59101206, 0.00530767, 0.00311926, -0.00970395, 0.00000000, 0.00000000, 0.00000000, 0.00000000
1, 0.1775, 58, 0.94799602, 0.27442682, 0.10168497, -3.14282942, 0.53345519, 1.58678746, 56.85472107, 5.26161957, -61.00555420, -107.50160980, 72.69692230, 147.50563049, -0.32564548, 0.51819277, 0.52554643, -0.59095871, 0.00674868, 0.00923139, -0.01223935, 0.00000000, 0.00000000, 0.00000000, 0.00000000
1, 0.1800, 59, 0.95078278, 0.27262741, 0.09945217, -3.36219144, 1.01280797, 1.80382454, 56.15317154, 5.40777540, -61.47325134, -107.55359650, 72.70480347, 147.46200562, -0.32570517, 0.51826745, 0.52557641, -0.59083372, 0.00400281, 0.01082432, -0.00978877, 0.00000000, 0.00000000, 0.00000000, 0.00000000
1, 0.1825, 60, 0.95283502, 0.27146003, 0.09576417, -3.14727378, 1.14890361, 2.08472800, 56.15317154, 5.40777540, -61.47325134, -107.57530212, 72.70891571, 147.44747925, -0.32575446, 0.51828378, 0.52560157, -0.59076983, 0.00197190, 0.01189253, -0.00601403, 0.00000000, 0.00000000, 0.00000000, 0.00000000
1, 0.1850, 61, 0.95488316, 0.27333760, 0.09407795, -2.86152148, 1.42304707, 2.43721175, 56.15317154, 5.40777540, -61.47325134, -107.59928131, 72.71363831, 147.42987061, -0.32580191, 0.51830977, 0.52562100, -0.59070361, -0.00005174, 0.00990221, -0.00423312, 0.00000000, 0.00000000, 0.00000000, 0.00000000
1, 0.1875, 62, 0.95463389, 0.27348542, 0.09224776, -2.64451003, 1.28438926, 2.57450271, 56.15317154, 5.40777540, -61.47325134, -107.62197876, 72.71882629, 147.41302490, -0.32585022, 0.51833701, 0.52563506, -0.59064043, 0.00022441, 0.00963679, -0.00231674, 0.00000000, 0.00000000, 0.00000000, 0.00000000
1, 0.1900, 63, 0.95594317, 0.27734530, 0.08924923, -2.42760539, 1.14683008, 2.64186835, 56.15317154, 5.40777540, -61.47325134, -107.64326477, 72.72423553, 147.39709473, -0.32589859, 0.51836485, 0.52564472, -0.59058088, -0.00105679, 0.00565735, 0.00075957, 0.00000000, 0.00000000, 0.00000000, 0.00000000
1, 0.1925, 64, 0.95520860, 0.27761376, 0.08742189, -2.13636208, 0.66814840, 2.42460513, 56.35778809, 6.13855600, -61.50248337, -107.65962219, 72.72949219, 147.38555908, -0.32594633, 0.51838601, 0.52564961, -0.59053159, -0.00029498, 0.00527960, 0.00264108, 0.00000000, 0.00000000, 0.00000000, 0.00000000
1, 0.1950, 65, 0.95556206, 0.27705127, 0.08386883, -1.99118841, 0.46507418, 2.21155667, 56.35778809, 6.13855600, -61.50248337, -107.67356110, 72.73441315, 147.37617493, -0.32599202, 0.51840323, 0.52565354, -0.59048778, -0.00062293, 0.00574204, 0.00623809, 0.00000000, 0.00000000, 0.00000000, 0.00000000
1, 0.1975, 66, 0.95326549, 0.27374282, 0.08235651, -1.77140033, -0.01867295, 2.27421880, 56.35778809, 6.13855600, -61.50248337, -107.68342590, 72.73982239, 147.37048340, -0.32604155, 0.51841652, 0.52565050, -0.59045148, 0.00170177, 0.00894869, 0.00777157, 0.00000000, 0.00000000, 0.00000000, 0.00000000
1, 0.2000, 67, 0.95253527, 0.27290338, 0.08063439, -1.62501073, -0.29757583, 2.47977853, 56.35778809, 6.13855600, -61.50248337, -107.69126129, 72.74597168, 147.36653137, -0.32609528, 0.51842952, 0.52564120, -0.59041852, 0.00246370, 0.00967839, 0.00950128, 0.00000000, 0.00000000, 0.00000000, 0.00000000
1, 0.2025, 68, 0.95047414, 0.27289551, 0.08051629, -1.33438802, -0.64327478, 2.61402106, 56.35778809, 6.13855600, -61.50248337, -107.69606781, 72.75270081, 147.36499023, -0.32615143, 0.51844174, 0.52562422, -0.59039187, 0.00455964, 0.00957197, 0.00960904, 0.00000000, 0.00000000, 0.00000000, 0.00000000
1, 0.2050, 69, 0.95168120, 0.27195260, 0.07805544, -0.89884871, -1.12610602, 2.74593067, 56.12393951, 6.28471184, -61.56094742, -107.69640350, 72.76009369, 147.36698914, -0.32620987, 0.51845235, 0.52559668, -0.59037477, 0.00339085, 0.01039687, 0.01203404, 0.00000000, 0.00000000, 0.00000000, 0.00000000
1, 0.2075, 70, 0.95167917, 0.27026486, 0.07570786, -0.53634435, -1.47113371, 2.87994742, 56.12393951, 6.28471184, -61.56094742, -107.69350433, 72.76809692, 147.37142944, -0.32626992, 0.51846260, 0.52556056, -0.59036475, 0.00343424, 0.01196250, 0.01432692, 0.00000000, 0.00000000, 0.00000000, 0.00000000
1, 0.2100, 71, 0.95154548, 0.27116290, 0.07303353, -0.17567645, -1.60735023, 2.94686151, 56.12393951, 6.28471184, -61.56094742, -107.68882751, 72.77631378, 147.37678528, -0.32632831, 0.51847446, 0.52551806, -0.59035993, 0.00361043, 0.01094091, 0.01693647, 0.00000000, 0.00000000, 0.00000000, 0.00000000
1, 0.2125, 72, 0.95360321, 0.27106348, 0.07205021, 0.40268585, -1.95256031, 3.22005057, 56.12393951, 6.28471184, -61.56094742, -107.68069458, 72.78548431, 147.38423157, -0.32638761, 0.51848906, 0.52546257, -0.59036368, 0.00159997, 0.01090771, 0.01783350, 0.00000000, 0.00000000, 0.00000000, 0.00000000
1, 0.2150, 73, 0.95249242, 0.27537933, 0.07077439, 0.54839212, -2.16112733, 3.35662627, 56.12393951, 6.28471184, -61.56094742, -107.67094421, 72.79511261, 147.39300537, -0.32644942, 0.51850367, 0.52540219, -0.59037054, 0.00276059, 0.00645417, 0.01901254, 0.00000000, 0.00000000, 0.00000000, 0.00000000
1, 0.2175, 74, 0.95176250, 0.27647695, 0.07115928, 0.55405229, -2.85240436, 3.27729344, 56.76702499, 5.55393171, -61.85326004, -107.65563965, 72.80508423, 147.40757751, -0.32651806, 0.51850843, 0.52533764, -0.59038579, 0.00354201, 0.00522205, 0.01850191, 0.00000000, 0.00000000, 0.00000000, 0.00000000
1, 0.2200, 75, 0.95189136, 0.27559805, 0.07248974, 0.48620734, -3.33773851, 3.27093410, 56.76702499, 5.55393171, -61.85326004, -107.63673401, 72.81537628, 147.42610168, -0.32659295, 0.51850641, 0.52527058, -0.59040582, 0.00346619, 0.00596649, 0.01702633, 0.00000000, 0.00000000, 0.00000000, 0.00000000
1, 0.2225, 76, 0.95385188, 0.27358320, 0.07648739, 0.48840746, -3.61359072, 3.19724679, 56.76702499, 5.55393171, -61.85326004, -107.61547852, 72.82578278, 147.44706726, -0.32667005, 0.51849997, 0.52520233, -0.59042954, 0.00155932, 0.00784993, 0.01287195, 0.00000000, 0.00000000, 0.00000000, 0.00000000
1, 0.2250, 77, 0.95520890, 0.27191859, 0.08159142, 0.70646554, -3.88962460, 3.26273060, 56.76702499, 5.55393171, -61.85326004, -107.59167480, 72.83647156, 147.47013855, -0.32674864, 0.51849222, 0.52512860, -0.59045839, 0.00025737, 0.00938132, 0.00759701, 0.00000000, 0.00000000, 0.00000000, 0.00000000
1, 0.2275, 78, 0.95620084, 0.27146932, 0.08757018, 0.85080540, -3.95751953, 3.26133823, 56.76702499, 5.55393171, -61.85326004, -107.56697845, 72.84723663, 147.49374390, -0.32682636, 0.51848471, 0.52505255, -0.59048969, -0.00067914, 0.00969795, 0.00144281, 0.00000000, 0.00000000, 0.00000000, 0.00000000
1, 0.2300, 79, 0.95584482, 0.27264810, 0.09101049, 1.35350645, -3.88468027, 3.33062315, 56.67933273, 5.49546909, -61.29786682, -107.55006409, 72.86190033, 147.50808716, -0.32691610, 0.51850843, 0.52495444, -0.59050632, -0.00024766, 0.00831223, -0.00215424, 0.00000000, 0.00000000, 0.00000000, 0.00000000
1, 0.2325, 80, 0.95317793, 0.27530146, 0.09374491, 1.85469079, -3.60632586, 3.54258013, 56.67933273, 5.49546909, -61.29786682, -107.52622986, 72.87303925, 147.52821350, -0.32698205, 0.51851583, 0.52486473, -0.59054309, 0.00247651, 0.00551826, -0.00506164, 0.00000000, 0.00000000, 0.00000000, 0.00000000
1, 0.2350, 81, 0.95001072, 0.27789393, 0.09195814, 2.21153498, -3.26007581, 3.75592875, 56.67933273, 5.49546909, -61.29786682, -107.50463867, 72.88446808, 147.54499817, -0.32704279, 0.51853263, 0.52477050, -0.59057850, 0.00570244, 0.00277767, -0.00343794, 0.00000000, 0.00000000, 0.00000000, 0.00000000
1, 0.2375, 82, 0.94900966, 0.28165141, 0.08676321, 2.56816602, -2.91162944, 3.82942820, 56.67933273, 5.49546909, -61.29786682, -107.48503113, 72.89578247, 147.55882263, -0.32709643, 0.51855731, 0.52467334, -0.59061348, 0.00676155, -0.00112966, 0.00160419, 0.00000000, 0.00000000, 0.00000000, 0.00000000
1, 0.2400, 83, 0.94789255, 0.28369105, 0.08129784, 2.99887896, -2.83836317, 3.82901382, 56.67933273, 5.49546909, -61.29786682, -107.46487427, 72.90702820, 147.57206726, -0.32714435, 0.51858592, 0.52457112, -0.59065259, 0.00793642, -0.00331748, 0.00691448, 0.00000000, 0.00000000, 0.00000000, 0.00000000
1, 0.2425, 84, 0.94363755, 0.28360048, 0.07763924, 3.21142769, -2.48796368, 3.69319010, 56.85472107, 5.32008171, -61.91172028, -107.44654846, 72.91770935, 147.58282471, -0.32718408, 0.51861906, 0.52447021, -0.59069115, 0.01224620, -0.00336853, 0.01043001, 0.00000000, 0.00000000, 0.00000000, 0.00000000
1, 0.2450, 85, 0.93975908, 0.28273246, 0.07690071, 2.99541903, -2.42293763, 3.83465838, 56.85472107, 5.32008171, -61.91172028, -107.42958832, 72.92869568, 147.59272766, -0.32722732, 0.51865309, 0.52437091, -0.59072548, 0.01618088, -0.00264892, 0.01103082, 0.00000000, 0.00000000, 0.00000000, 0.00000000
1, 0.2475, 86, 0.93975908, 0.28273246, 0.07690071, 2.99541903, -2.42293763, 3.83465838, 56.85472107, 5.32008171, -61.91172028, -107.41261292, 72.93965912, 147.60264587, -0.32727054, 0.51868707, 0.52427155, -0.59075975, 0.01623708, -0.00279742, 0.01089311, 0.00000000, 0.00000000, 0.00000000, 0.00000000
1, 0.2500, 87, 0.94231063, 0.28247765, 0.07835796, 1.62701702, -1.96531296, 4.75455761, 56.85472107, 5.32008171, -61.91172028, -107.40485382, 72.95246124, 147.60653687, -0.32733586, 0.51872772, 0.52418274, -0.59076667, 0.01375109, -0.00273460, 0.00933404, 0.00000000, 0.00000000, 0.00000000, 0.00000000
1, 0.2525, 88, 0.94231063, 0.28247765, 0.07835796, 1.62701702, -1.96531296, 4.75455761, 56.85472107, 5.32008171, -61.91172028, -107.39708710, 72.96525574, 147.61039734, -0.32740119, 0.51876837, 0.52409393, -0.59077358, 0.01381654, -0.00292674, 0.00923219, 0.00000000, 0.00000000, 0.00000000, 0.00000000
1, 0.2550, 89, 0.94763136, 0.29067150, 0.08311600, 0.68841296, -1.48828053, 4.69415426, 57.20549393, 5.08623219, -61.64863968, -107.39520264, 72.97758484, 147.61056519, -0.32747096, 0.51880777, 0.52402133, -0.59076482, 0.00855881, -0.01131377, 0.00440351, 0.00000000, 0.00000000, 0.00000000, 0.00000000
1, 0.2575, 90, 0.94834268, 0.29352611, 0.08144748, 0.47035497, -1.21224606, 4.62866974, 57.20549393, 5.08623219, -61.64863968, -107.39586639, 72.98954773, 147.60862732, -0.32753912, 0.51884836, 0.52395415, -0.59075081, 0.00790858, -0.01435965, 0.00601569, 0.00000000, 0.00000000, 0.00000000, 0.00000000
1, 0.2600, 91, 0.95498216, 0.29681885, 0.07684080, 0.24967064, -0.65596575, 4.35717392, 57.20549393, 5.08623219, -61.64863968, -107.40079498, 73.00040436, 147.60282898, -0.32759994, 0.51889151, 0.52389693, -0.59072995, 0.00132453, -0.01783326, 0.01059202, 0.00000000, 0.00000000, 0.00000000, 0.00000000
1, 0.2625, 92, 0.95981759, 0.29677412, 0.07291989, 0.03485956, -0.79315972, 4.14619541, 57.20549393, 5.08623219, -61.64863968, -107.40465546, 73.01089478, 147.59870911, -0.32766205, 0.51892895, 0.52384382, -0.59070969, -0.00345737, -0.01796148, 0.01447939, 0.00000000, 0.00000000, 0.00000000, 0.00000000
1, 0.2650, 93, 0.96088582, 0.29893121, 0.06855161, -0.03661450, -0.92461669, 3.65506554, 57.20549393, 5.08623219, -61.64863968, -107.40648651, 73.02031708, 147.59689331, -0.32772017, 0.51895857, 0.52379632, -0.59069359, -0.00447756, -0.02027133, 0.01880952, 0.00000000, 0.00000000, 0.00000000, 0.00000000
1, 0.2675, 94, 0.96053004, 0.29526305, 0.06702982, -0.32315674, -1.12732565, 3.16367292, 56.27009583, 5.49546909, -61.35632706, -107.40622711, 73.02870941, 147.59799194, -0.32777748, 0.51897788, 0.52375662, -0.59068006, -0.00407904, -0.01673636, 0.02028820, 0.00000000, 0.00000000, 0.00000000, 0.00000000
1, 0.2700, 95, 0.95920569, 0.29388747, 0.06823345, -0.61042613, -1.19595349, 2.95386100, 56.27009583, 5.49546909, -61.35632706, -107.40563965, 73.03665161, 147.60021973, -0.32783613, 0.51899183, 0.52372247, -0.59066552, -0.00271422, -0.01548642, 0.01904204, 0.00000000, 0.00000000, 0.00000000, 0.00000000
1, 0.2725, 96, 0.95909131, 0.29337442, 0.06969219, -0.97004724, -1.19711363, 2.81514049, 56.27009583, 5.49546909, -61.35632706, -107.40560913, 73.04425049, 147.60278320, -0.32789707, 0.51900166, 0.52369457, -0.59064788, -0.00256115, -0.01509455, 0.01754514, 0.00000000, 0.00000000, 0.00000000, 0.00000000
1, 0.2750, 97, 0.95896488, 0.29460642, 0.06946692, -1.04004824, -1.47034121, 2.53190422, 56.27009583, 5.49546909, -61.35632706, -107.40290070, 73.05138397, 147.60832214, -0.32795829, 0.51900417, 0.52366883, -0.59063452, -0.00239843, -0.01643613, 0.01772166, 0.00000000, 0.00000000, 0.00000000, 0.00000000
1, 0.2775, 98, 0.95653850, 0.29436147, 0.06861275, -1.18423736, -1.46729016, 2.25265622, 56.27009583, 5.49546909, -61.35632706, -107.39992523, 73.05786896, 147.61454773, -0.32801747, 0.51900256, 0.52364808, -0.59062147, 0.00006092, -0.01628971, 0.01852906, 0.00000000, 0.00000000, 0.00000000, 0.00000000
1, 0.2800, 99, 0.95484412, 0.29204085, 0.06699213, -1.47114336, -1.60295856, 1.90205395, 56.38702011, 4.94007587, -61.59017944, -107.32189941, 73.05657196, 147.69512939, -0.32807153, 0.51885402, 0.52361745, -0.59074903, 0.00174874, -0.01383036, 0.01977724, 0.00000000, 0.00000000, 0.00000000, 0.00000000
1, 0.2825, 100, 0.95207572, 0.28516397, 0.06554835, -1.75516582, -2.08481455, 1.54674792, 56.38702011, 4.94007587, -61.59017944, -107.31372070, 73.06181335, 147.70826721, -0.32813516, 0.51883221, 0.52360767, -0.59074152, 0.00454378, -0.00702462, 0.02115531, 0.00000000, 0.00000000, 0.00000000, 0.00000000
1, 0.2850, 101, 0.95197177, 0.28073171, 0.06596950, -1.82474077, -2.36243629, 1.54321074, 56.38702011, 4.94007587, -61.59017944, -107.30352783, 73.06726837, 147.72369385, -0.32820269, 0.51880634, 0.52359682, -0.59073639, 0.00467545, -0.00266361, 0.02065763, 0.00000000, 0.00000000, 0.00000000, 0.00000000
1, 0.2875, 102, 0.94969541, 0.27588752, 0.06871054, -1.74997580, -2.70795274, 1.53828120, 56.38702011, 4.94007587, -61.59017944, -107.29042053, 73.07295227, 147.74195862, -0.32827327, 0.51877648, 0.52358258, -0.59073603, 0.00698078, 0.00210974, 0.01782477, 0.00000000, 0.00000000, 0.00000000, 0.00000000
1, 0.2900, 103, 0.94705755, 0.26921538, 0.07020237, -1.60542274, -2.77804422, 1.67673838, 56.38702011, 4.94007587, -61.59017944, -107.27673340, 73.07903290, 147.76046753, -0.32834479, 0.51874828, 0.52356440, -0.59073710, 0.00964946, 0.00870586, 0.01623645, 0.00000000, 0.00000000, 0.00000000, 0.00000000
1, 0.2925, 104, 0.94452459, 0.26636615, 0.07089712, -1.31642342, -2.91712928, 1.88372803, 56.24086380, 5.37854433, -62.08710861, -107.26173401, 73.08567047, 147.77960205, -0.32841730, 0.51872277, 0.52353919, -0.59074157, 0.01221615, 0.01147148, 0.01543593, 0.00000000, 0.00000000, 0.00000000, 0.00000000
1, 0.2950, 105, 0.94222790, 0.26560232, 0.07198991, -0.95564920, -3.05444407, 2.02056694, 56.24086380, 5.37854433, -62.08710861, -107.24505615, 73.09278870, 147.79953003, -0.32848904, 0.51869959, 0.52350670, -0.59075069, 0.01454896, 0.01214734, 0.01422719, 0.00000000, 0.00000000, 0.00000000, 0.00000000
1, 0.2975, 106, 0.93980914, 0.26459908, 0.07259049, -0.73716497, -3.33487272, 2.36575079, 56.24086380, 5.37854433, -62.08710861, -107.22647095, 73.10088348, 147.82087708, -0.32856598, 0.51867837, 0.52346557, -0.59076309, 0.01700879, 0.01304901, 0.01349638, 0.00000000, 0.00000000, 0.00000000, 0.00000000
1, 0.3000, 107, 0.93970633, 0.26331210, 0.07660352, -0.80736053, -3.47951174, 2.71371937, 56.24086380, 5.37854433, -62.08710861, -107.20774078, 73.10992432, 147.84255981, -0.32864985, 0.51865876, 0.52342033, -0.59077382, 0.01715750, 0.01421965, 0.00934781, 0.00000000, 0.00000000, 0.00000000, 0.00000000
1, 0.3025, 108, 0.94069326, 0.26130834, 0.07950356, -0.87467271, -3.97033906, 3.05698419, 56.24086380, 5.37854433, -62.08710861, -107.18613434, 73.12019348, 147.86741638, -0.32874447, 0.51863623, 0.52336854, -0.59078681, 0.01622248, 0.01609245, 0.00629259, 0.00000000, 0.00000000, 0.00000000, 0.00000000
1, 0.3050, 109, 0.94203120, 0.26456714, 0.08419421, -0.87262303, -4.18134642, 3.26393628, 56.24086380, 5.37854433, -62.08710861, -107.16333771, 73.13108063, 147.89353943, -0.32884416, 0.51861334, 0.52331287, -0.59080076, 0.01493979, 0.01269418, 0.00143793, 0.00000000, 0.00000000, 0.00000000, 0.00000000
1, 0.3075, 110, 0.94351965, 0.26286146, 0.09223008, -0.58404994, -4.31603718, 3.19122696, 56.00701523, 5.05700064, -61.44402313, -107.13855743, 73.14185333, 147.92095947, -0.32894117, 0.51858997, 0.52325332, -0.59082001, 0.01350588, 0.01426435, -0.00677107, 0.00000000, 0.00000000, 0.00000000, 0.00000000
1, 0.3100, 111, 0.94316745, 0.26450929, 0.09726612, -0.37049869, -4.03926992, 3.33416200, 56.00701523, 5.05700064, -61.44402313, -107.11572266, 73.15277863, 147.94577026, -0.32903445, 0.51857328, 0.52319139, -0.59083754, 0.01391340, 0.01247591, -0.01197134, 0.00000000, 0.00000000, 0.00000000, 0.00000000
1, 0.3125, 112, 0.94001579, 0.26497930, 0.09776856, 0.05822725, -3.69234920, 3.54728556, 56.00701523, 5.05700064, -61.44402313, -107.09503174, 73.16397858, 147.96723938, -0.32912165, 0.51856655, 0.52312398, -0.59085453, 0.01712168, 0.01185805, -0.01262872, 0.00000000, 0.00000000, 0.00000000, 0.00000000
1, 0.3150, 113, 0.93865919, 0.26712680, 0.09328291, 0.27105129, -3.28150082, 3.97180176, 56.00701523, 5.05700064, -61.44402313, -107.07808685, 73.17589569, 147.98423767, -0.32920724, 0.51857156, 0.52305198, -0.59086621, 0.01853848, 0.00954566, -0.00828336, 0.00000000, 0.00000000, 0.00000000, 0.00000000
1, 0.3175, 114, 0.93970335, 0.27131996, 0.08405796, 0.41163018, -2.80428290, 4.53733349, 56.00701523, 5.05700064, -61.44402313, -107.06592560, 73.18882751, 147.99588013, -0.32929307, 0.51859015, 0.52297515, -0.59086996, 0.01755965, 0.00516438, 0.00081955, 0.00000000, 0.00000000, 0.00000000, 0.00000000
1, 0.3200, 115, 0.94123805, 0.27415985, 0.07505569, 0.55581951, -2.80733418, 4.81658077, 55.71470261, 4.41391420, -61.82402802, -107.05400848, 73.20238495, 148.00686646, -0.32938090, 0.51861292, 0.52289331, -0.59087348, 0.01609337, 0.00212532, 0.00969782, 0.00000000, 0.00000000, 0.00000000, 0.00000000
1, 0.3225, 116, 0.94413447, 0.27422550, 0.07138483, 0.70278573, -3.15547490, 5.02120066, 55.71470261, 4.41391420, -61.82402802, -107.03945923, 73.21669769, 148.02021790, -0.32947367, 0.51863462, 0.52280474, -0.59088111, 0.01326907, 0.00185242, 0.01322843, 0.00000000, 0.00000000, 0.00000000, 0.00000000
1, 0.3250, 117, 0.94681156, 0.27274218, 0.07282301, 1.06896317, -3.91812468, 5.28942251, 55.71470261, 4.41391420, -61.82402802, -107.01859283, 73.23219299, 148.03923035, -0.32957447, 0.51865214, 0.52270293, -0.59089959, 0.01067007, 0.00311869, 0.01161380, 0.00000000, 0.00000000, 0.00000000, 0.00000000
1, 0.3275, 118, 0.94790888, 0.27369058, 0.07564582, 1.43230140, -4.39833069, 5.21178293, 55.71470261, 4.41391420, -61.82402802, -106.99275208, 73.24787903, 148.06246948, -0.32967559, 0.51866519, 0.52259386, -0.59092820, 0.00965166, 0.00195777, 0.00859000, 0.00000000, 0.00000000, 0.00000000, 0.00000000
1, 0.3300, 119, 0.94923997, 0.27540189, 0.07676908, 1.79390955, -4.67082548, 5.13696527, 55.71470261, 4.41391420, -61.82402802, -106.95389557, 73.26345062, 148.09765625, -0.32977843, 0.51866102, 0.52247226, -0.59098190, 0.00839889, 0.00005499, 0.00720403, 0.00000000, 0.00000000, 0.00000000, 0.00000000
1, 0.3325, 120, 0.95187527, 0.28184214, 0.07429612, 2.01359105, -5.15347385, 5.12970209, 55.71470261, 4.32622051, -62.84711838, -106.92028046, 73.27944183, 148.12748718, -0.32988054, 0.51866758, 0.52235121, -0.59102631, 0.00584394, -0.00659225, 0.00943744, 0.00000000, 0.00000000, 0.00000000, 0.00000000
1, 0.3350, 121, 0.95318228, 0.28825530, 0.07329185, 1.72689831, -5.29133987, 4.91895056, 55.71470261, 4.32622051, -62.84711838, -106.88570404, 73.29504395, 148.15905762, -0.32998469, 0.51866782, 0.52223516, -0.59107047, 0.00461525, -0.01320463, 0.01019978, 0.00000000, 0.00000000, 0.00000000, 0.00000000
1, 0.3375, 122, 0.95438689, 0.28708047, 0.06984987, 1.37016046, -5.63868713, 4.77552605, 55.71470261, 4.32622051, -62.84711838, -106.84884644, 73.31056976, 148.19396973, -0.33009502, 0.51865935, 0.52212286, -0.59111553, 0.00348848, -0.01222438, 0.01338961, 0.00000000, 0.00000000, 0.00000000, 0.00000000
1, 0.3400, 123, 0.95330334, 0.28232011, 0.06709087, 1.01468265, -6.12560892, 4.70014524, 55.71470261, 4.32622051, -62.84711838, -106.80875397, 73.32624817, 148.23318481, -0.33021390, 0.51864117, 0.52201241, -0.59116250, 0.00465059, -0.00765684, 0.01588046, 0.00000000, 0.00000000, 0.00000000, 0.00000000
1, 0.3425, 124, 0.94670725, 0.26758459, 0.07237767, 1.23709691, -6.88960218, 4.96881914, 55.71470261, 4.32622051, -62.84711838, -106.76254272, 73.34311676, 148.27818298, -0.33034244, 0.51861781, 0.52189058, -0.59121877, 0.01133108, 0.00687551, 0.01029077, 0.00000000, 0.00000000, 0.00000000, 0.00000000
1, 0.3450, 125, 0.94623995, 0.26593587, 0.07577492, 1.74385333, -7.17503500, 5.80257320, 56.15317154, 5.46623802, -62.08710861, -106.71469116, 73.36216736, 148.32356262, -0.33047923, 0.51860386, 0.52175075, -0.59127802, 0.01189363, 0.00828800, 0.00657266, 0.00000000, 0.00000000, 0.00000000, 0.00000000
1, 0.3475, 126, 0.94623995, 0.26593587, 0.07577492, 1.74385333, -7.17503500, 5.80257320, 56.15317154, 5.46623802, -62.08710861, -106.66677094, 73.38121796, 148.36904907, -0.33061603, 0.51858991, 0.52161092, -0.59133720, 0.01198882, 0.00805170, 0.00625193, 0.00000000, 0.00000000, 0.00000000, 0.00000000
1, 0.3500, 127, 0.95060217, 0.27226242, 0.08185051, 3.68279505, -6.75795746, 6.85099268, 56.15317154, 5.46623802, -62.08710861, -106.61973572, 73.40245819, 148.40852356, -0.33073965, 0.51860726, 0.52143717, -0.59140617, 0.00773275, 0.00145188, -0.00015035, 0.00000000, 0.00000000, 0.00000000, 0.00000000
1, 0.3525, 128, 0.95060217, 0.27226242, 0.08185051, 3.68279505, -6.75795746, 6.85099268, 56.15317154, 5.46623802, -62.08710861, -106.57260132, 73.42372894, 148.44810486, -0.33086324, 0.51862454, 0.52126330, -0.59147501, 0.00783849, 0.00117838, -0.00047684, 0.00000000, 0.00000000, 0.00000000, 0.00000000
1, 0.3550, 129, 0.95714158, 0.27958763, 0.08757035, 3.24554420, -5.94102192, 7.49296045, 56.15317154, 5.46623802, -62.08710861, -106.53456879, 73.44590759, 148.47930908, -0.33099076, 0.51865655, 0.52109373, -0.59152508, 0.00140947, -0.00644872, -0.00648384, 0.00000000, 0.00000000, 0.00000000, 0.00000000
1, 0.3575, 130, 0.95920819, 0.27993643, 0.08964881, 2.59683561, -5.67560768, 7.84837961, 56.32855988, 5.40777540, -62.67173386, -106.50106049, 73.46877289, 148.50750732, -0.33112717, 0.51869124, 0.52093035, -0.59156209, -0.00054353, -0.00711662, -0.00883061, 0.00000000, 0.00000000, 0.00000000, 0.00000000
1, 0.3600, 131, 0.96188921, 0.27661985, 0.09032574, 2.01911259, -5.33698893, 7.99474096, 56.32855988, 5.40777540, -62.67173386, -106.47199249, 73.49170685, 148.53254700, -0.33126816, 0.51872784, 0.52077532, -0.59158772, -0.00311071, -0.00412735, -0.00975485, 0.00000000, 0.00000000, 0.00000000, 0.00000000
1, 0.3625, 132, 0.96505868, 0.27195877, 0.09061448, 1.72996271, -5.13306046, 8.06838989, 56.32855988, 5.40777540, -62.67173386, -106.44541168, 73.51468658, 148.55575562, -0.33141100, 0.51876575, 0.52062452, -0.59160709, -0.00616628, 0.00020218, -0.01027887, 0.00000000, 0.00000000, 0.00000000, 0.00000000
1, 0.3650, 133, 0.96652019, 0.26975662, 0.09033337, 1.43940246, -4.72471428, 8.35463715, 56.32855988, 5.40777540, -62.67173386, -106.42348480, 73.53807068, 148.57485962, -0.33155620, 0.51881009, 0.52047718, -0.59161651, -0.00751209, 0.00205979, -0.01021259, 0.00000000, 0.00000000, 0.00000000, 0.00000000
1, 0.3675, 134, 0.96568924, 0.26859090, 0.09422754, 1.36762738, -4.72648430, 8.42478848, 56.32855988, 5.40777540, -62.67173386, -106.40183258, 73.56162262, 148.59385681, -0.33170316, 0.51885468, 0.52033001, -0.59162462, -0.00656468, 0.00287771, -0.01432076, 0.00000000, 0.00000000, 0.00000000, 0.00000000
1, 0.3700, 135, 0.96704334, 0.26463622, 0.09611939, 1.36841714, -4.79791975, 8.56369781, 56.29932785, 5.29085064, -62.11634064, -106.37986755, 73.58554840, 148.61318970, -0.33185264, 0.51889980, 0.52018064, -0.59163243, -0.00780076, 0.00647873, -0.01642963, 0.00000000, 0.00000000, 0.00000000, 0.00000000
1, 0.3725, 136, 0.96680778, 0.26363790, 0.09708217, 1.65316677, -4.45014381, 8.63742352, 56.29932785, 5.29085064, -62.11634064, -106.36013794, 73.60942078, 148.62945557, -0.33199593, 0.51895237, 0.52002931, -0.59163904, -0.00744754, 0.00712124, -0.01759825, 0.00000000, 0.00000000, 0.00000000, 0.00000000
1, 0.3750, 137, 0.96800792, 0.26502511, 0.09502359, 2.15586805, -4.37730503, 8.70670795, 56.29932785, 5.29085064, -62.11634064, -106.33987427, 73.63335419, 148.64497375, -0.33213356, 0.51901025, 0.51987118, -0.59165001, -0.00852984, 0.00537700, -0.01574836, 0.00000000, 0.00000000, 0.00000000, 0.00000000
1, 0.3775, 138, 0.96882600, 0.26709113, 0.08833269, 2.73019361, -4.23785210, 8.98648167, 56.29932785, 5.29085064, -62.11634064, -106.31993103, 73.65789795, 148.65863037, -0.33226672, 0.51907724, 0.51970351, -0.59166384, -0.00922734, 0.00294423, -0.00926706, 0.00000000, 0.00000000, 0.00000000, 0.00000000
1, 0.3800, 139, 0.96866935, 0.26614419, 0.07707635, 3.01714325, -4.16592884, 8.98651886, 56.29932785, 5.29085064, -62.11634064, -106.29904938, 73.68421173, 148.67222595, -0.33240607, 0.51915240, 0.51952153, -0.59167928, -0.00894153, 0.00349727, 0.00176729, 0.00000000, 0.00000000, 0.00000000, 0.00000000
1, 0.3825, 140, 0.97058588, 0.26370239, 0.06787023, 3.31007266, -4.78857899, 9.11699867, 56.29932785, 4.79392004, -61.64863968, -106.27336884, 73.70941162, 148.69036865, -0.33254054, 0.51921797, 0.51934081, -0.59170491, -0.01073462, 0.00556856, 0.01073408, 0.00000000, 0.00000000, 0.00000000, 0.00000000
1, 0.3850, 141, 0.97082728, 0.25971001, 0.06340951, 3.67467117, -5.40835905, 9.10740280, 56.29932785, 4.79392004, -61.64863968, -106.24154663, 73.73506165, 148.71395874, -0.33267775, 0.51927799, 0.51915097, -0.59174174, -0.01085055, 0.00919208, 0.01492507, 0.00000000, 0.00000000, 0.00000000, 0.00000000
1, 0.3875, 142, 0.96745366, 0.25306922, 0.06245937, 4.32690096, -6.02655220, 9.16682720, 56.29932785, 4.79392004, -61.64863968, -106.20309448, 73.76128387, 148.74275208, -0.33281529, 0.51933539, 0.51894748, -0.59179240, -0.00734884, 0.01546362, 0.01557215, 0.00000000, 0.00000000, 0.00000000, 0.00000000
1, 0.3900, 143, 0.96492404, 0.24984257, 0.06375933, 5.33896685, -6.64578247, 9.50482368, 56.29932785, 4.79392004, -61.64863968, -106.15763855, 73.78872681, 148.77618408, -0.33295277, 0.51939589, 0.51872265, -0.59185916, -0.00468540, 0.01831029, 0.01393115, 0.00000000, 0.00000000, 0.00000000, 0.00000000
1, 0.3925, 144, 0.95923245, 0.24846052, 0.06399422, 6.42291451, -7.26434183, 9.84259415, 56.29932785, 4.79392004, -61.64863968, -106.10506439, 73.81741333, 148.81420898, -0.33308923, 0.51946008, 0.51847541, -0.59194261, 0.00114584, 0.01930173, 0.01331683, 0.00000000, 0.00000000, 0.00000000, 0.00000000
1, 0.3950, 145, 0.95401329, 0.24919106, 0.06279412, 7.43465900, -7.88027620, 9.97081375, 56.03624725, 5.26161957, -61.73633194, -106.04497528, 73.84682465, 148.85742188, -0.33322290, 0.51952511, 0.51820910, -0.59204358, 0.00650793, 0.01817830, 0.01409980, 0.00000000, 0.00000000, 0.00000000, 0.00000000
1, 0.3975, 146, 0.94988412, 0.25114188, 0.06258804, 8.16003132, -8.63737297, 10.09805870, 56.03624725, 5.26161957, -61.73633194, -105.97687531, 73.87702942, 148.90707397, -0.33335850, 0.51958692, 0.51792639, -0.59216028, 0.01078367, 0.01583156, 0.01384859, 0.00000000, 0.00000000, 0.00000000, 0.00000000
1, 0.4000, 147, 0.94926196, 0.25508088, 0.06203863, 8.66991043, -9.46132660, 9.94533730, 56.03624725, 5.26161957, -61.73633194, -105.90009308, 73.90744781, 148.96444702, -0.33349559, 0.51964009, 0.51763284, -0.59229314, 0.01155311, 0.01150453, 0.01390050, 0.00000000, 0.00000000, 0.00000000, 0.00000000
1, 0.4025, 148, 0.94671118, 0.25824034, 0.06380299, 9.32229137, -10.14436340, 9.72412300, 56.03624725, 5.26161957, -61.73633194, -105.81517029, 73.93774414, 149.02854919, -0.33363008, 0.51968658, 0.51732826, -0.59244263, 0.01425034, 0.00796816, 0.01160238, 0.00000000, 0.00000000, 0.00000000, 0.00000000
1, 0.4050, 149, 0.95022094, 0.25791579, 0.06183568, 9.97221565, -10.48560619, 9.78731251, 56.03624725, 5.26161957, -61.73633194, -105.72563934, 73.96842957, 149.09577942, -0.33376184, 0.51973403, 0.51701206, -0.59260279, 0.01088864, 0.00791502, 0.01301420, 0.00000000, 0.00000000, 0.00000000, 0.00000000
1, 0.4075, 150, 0.95045573, 0.25600943, 0.05765130, 10.47890949, -10.83368492, 10.20057678, 55.89009094, 5.37854433, -62.43788147, -105.63259125, 74.00031281, 149.16531372, -0.33389708, 0.51978528, 0.51668203, -0.59276956, 0.01080734, 0.00942773, 0.01662271, 0.00000000, 0.00000000, 0.00000000, 0.00000000
1, 0.4100, 151, 0.94876951, 0.25317112, 0.05785570, 11.20282745, -11.32261848, 10.89098167, 55.89009094, 5.37854433, -62.43788147, -105.53492737, 74.03411865, 149.23779297, -0.33403850, 0.51984316, 0.51633108, -0.59294486, 0.01265603, 0.01184535, 0.01581370, 0.00000000, 0.00000000, 0.00000000, 0.00000000
1, 0.4125, 152, 0.94686317, 0.24902959, 0.06317288, 11.85460758, -11.74628162, 11.79232693, 55.89009094, 5.37854433, -62.43788147, -105.43377686, 74.07038879, 149.31214905, -0.33418891, 0.51991040, 0.51595831, -0.59312564, 0.01473630, 0.01553004, 0.00986663, 0.00000000, 0.00000000, 0.00000000, 0.00000000
1, 0.4150, 153, 0.94214374, 0.25067100, 0.06724019, 12.64893341, -12.09277344, 12.27461338, 55.89009094, 5.37854433, -62.43788147, -105.32844543, 74.10798645, 149.38879395, -0.33434036, 0.51998425, 0.51556718, -0.59331566, 0.01963562, 0.01341367, 0.00514597, 0.00000000, 0.00000000, 0.00000000, 0.00000000
1, 0.4175, 154, 0.93876636, 0.24973921, 0.07114317, 13.44016266, -12.09087944, 12.62175369, 55.89009094, 5.37854433, -62.43788147, -105.22152710, 74.14637756, 149.46502686, -0.33448723, 0.52006769, 0.51516175, -0.59351188, 0.02319628, 0.01385801, 0.00058080, 0.00000000, 0.00000000, 0.00000000, 0.00000000
1, 0.4200, 155, 0.93550164, 0.25005451, 0.07384302, 14.08752441, -12.08923054, 12.89941978, 56.00701523, 4.82315111, -61.94095230, -105.11320496, 74.18542480, 149.54100037, -0.33463028, 0.52015889, 0.51474470, -0.59371316, 0.02664692, 0.01304508, -0.00278842, 0.00000000, 0.00000000, 0.00000000, 0.00000000
1, 0.4225, 156, 0.93562430, 0.24617229, 0.07023961, 14.37532616, -12.02609539, 13.45885658, 56.00701523, 4.82315111, -61.94095230, -105.00555420, 74.22570801, 149.61555481, -0.33477646, 0.52025914, 0.51431787, -0.59391272, 0.02671564, 0.01640649, 0.00014526, 0.00000000, 0.00000000, 0.00000000, 0.00000000
1, 0.4250, 157, 0.93514997, 0.23994851, 0.06684597, 14.59156704, -11.96692657, 14.22829342, 56.00701523, 4.82315111, -61.94095230, -104.89915466, 74.26780701, 149.68820190, -0.33492947, 0.52037030, 0.51387984, -0.59410828, 0.02738947, 0.02207730, 0.00286939, 0.00000000, 0.00000000, 0.00000000, 0.00000000
1, 0.4275, 158, 0.93433398, 0.23133217, 0.06732672, 14.95026588, -11.70309734, 15.27979946, 56.00701523, 4.82315111, -61.94095230, -104.79602051, 74.31226349, 149.75648499, -0.33508891, 0.52049905, 0.51342696, -0.59429699, 0.02841556, 0.03009714, 0.00172627, 0.00000000, 0.00000000, 0.00000000, 0.00000000
1, 0.4625, 159, 1.05090070, 0.26038557, 0.15429296, 29.34500313, -11.12579536, 31.11697578, 56.09470749, 4.09237051, -61.70710373, -103.53150940, 75.24947357, 150.28794861, -0.33782554, 0.52469569, 0.50446147, -0.59673029, -0.08385724, -0.01284191, -0.09471914, 0.00000000, 0.00000000, 0.00000000, 0.00000000
1, 0.4650, 160, 1.06943274, 0.26985788, 0.15989889, 29.63735771, -11.67920589, 31.24839592, 56.09470749, 4.09237051, -61.70710373, -103.41862488, 75.33225250, 150.32806396, -0.33802146, 0.52510577, 0.50363165, -0.59695953, -0.10202244, -0.02355654, -0.10113719, 0.00000000, 0.00000000, 0.00000000, 0.00000000
1, 0.4675, 161, 1.08700645, 0.28097525, 0.17054208, 29.64086151, -12.15837669, 30.89218903, 56.09470749, 4.09237051, -61.70710373, -103.29957581, 75.41439819, 150.37452698, -0.33821768, 0.52550519, 0.50280178, -0.59719640, -0.11923411, -0.03590272, -0.11261148, 0.00000000, 0.00000000, 0.00000000, 0.00000000
1, 0.4700, 162, 1.10409844, 0.29038176, 0.18030469, 29.93460464, -13.04259682, 30.03995514, 55.89009094, 4.09237051, -62.17480087, -103.16866302, 75.49496460, 150.43243408, -0.33840880, 0.52588540, 0.50197089, -0.59745234, -0.13597292, -0.04650289, -0.12324427, 0.00000000, 0.00000000, 0.00000000, 0.00000000
1, 0.4725, 163, 1.11995518, 0.29951292, 0.18310034, 30.43775940, -13.16428757, 29.26732063, 55.89009094, 3.62467122, -62.17480087, -103.03262329, 75.57369995, 150.49438477, -0.33858505, 0.52625877, 0.50114095, -0.59772032, -0.15148640, -0.05679536, -0.12691917, 0.00000000, 0.00000000, 0.00000000, 0.00000000
1, 0.4750, 164, 1.13787651, 0.30766866, 0.18599904, 31.22969627, -13.42286777, 28.56182671, 55.89009094, 3.62467122, -62.17480087, -102.88949585, 75.65081024, 150.56152344, -0.33874556, 0.52662647, 0.50030649, -0.59800464, -0.16907331, -0.06608225, -0.13071516, 0.00000000, 0.00000000, 0.00000000, 0.00000000
1, 0.4775, 165, 1.15341377, 0.31286278, 0.19753329, 32.45890808, -14.37199116, 27.98541641, 55.89009094, 3.62467122, -62.17480087, -102.73184204, 75.72702026, 150.64047241, -0.33889449, 0.52698410, 0.49945503, -0.59831691, -0.18428180, -0.07238208, -0.14319836, 0.00000000, 0.00000000, 0.00000000, 0.00000000
1, 0.4800, 166, 1.17168510, 0.31391919, 0.22427328, 33.90343857, -15.31580162, 27.19855499, 55.89009094, 3.62467122, -62.17480087, -102.58095551, 75.79965973, 150.71020508, -0.33900401, 0.52735227, 0.49861461, -0.59863132, -0.20224136, -0.07449566, -0.17083955, 0.00000000, 0.00000000, 0.00000000, 0.00000000
1, 0.4825, 167, 1.19546533, 0.31054103, 0.26205412, 35.85052109, -16.12193298, 26.76162148, 55.89009094, 3.62467122, -62.17480087, -102.39270782, 75.87371063, 150.81192017, -0.33911625, 0.52769762, 0.49771896, -0.59900850, -0.22570533, -0.07216692, -0.20967615, 0.00000000, 0.00000000, 0.00000000, 0.00000000
1, 0.4850, 168, 1.22422636, 0.31004909, 0.30597875, 38.58148956, -16.09092522, 26.40341377, 55.91932297, 2.77696586, -61.94095230, -102.19565582, 75.94674683, 150.91564941, -0.33919170, 0.52805924, 0.49679151, -0.59941703, -0.25415605, -0.07270519, -0.25468224, 0.00000000, 0.00000000, 0.00000000, 0.00000000
1, 0.4875, 169, 1.25599074, 0.31779751, 0.35063437, 41.81322098, -15.77716923, 25.97746658, 55.91932297, 2.77696586, -61.94095230, -101.99114227, 76.01848602, 151.01870728, -0.33922049, 0.52844352, 0.49582833, -0.59985930, -0.28561711, -0.08146080, -0.30043778, 0.00000000, 0.00000000, 0.00000000, 0.00000000
1, 0.4900, 170, 1.28552520, 0.33481830, 0.39091522, 44.75357819, -15.11002445, 24.92779732, 55.91932297, 2.77696586, -61.94095230, -101.78209686, 76.08731079, 151.11882019, -0.33919394, 0.52884626, 0.49484310, -0.60033274, -0.31486207, -0.09944016, -0.34181908, 0.00000000, 0.00000000, 0.00000000, 0.00000000
1, 0.4925, 171, 1.31249142, 0.35494688, 0.42794958, 46.89498901, -13.54248714, 23.40337372, 55.91932297, 2.77696586, -61.94095230, -101.57860565, 76.15146637, 151.20765686, -0.33910537, 0.52926821, 0.49385831, -0.60082167, -0.34155965, -0.12046069, -0.37990785, 0.00000000, 0.00000000, 0.00000000, 0.00000000
1, 0.4950, 172, 1.34453726, 0.36957386, 0.45584670, 47.94690704, -10.66621113, 21.69043541, 55.91932297, 2.77696586, -61.94095230, -101.39641571, 76.20988464, 151.27185059, -0.33895072, 0.52971643, 0.49290010, -0.60130054, -0.37336195, -0.13590723, -0.40874660, 0.00000000, 0.00000000, 0.00000000, 0.00000000
1, 0.4975, 173, 1.38696885, 0.38210520, 0.47024873, 48.20593262, -7.52146959, 20.05366898, 56.35778809, 1.92926037, -62.17480087, -101.24082947, 76.26273346, 151.30795288, -0.33873737, 0.53018963, 0.49198005, -0.60175717, -0.41557419, -0.14919031, -0.42395809, 0.00000000, 0.00000000, 0.00000000, 0.00000000
1, 0.5000, 174, 1.42976642, 0.39390251, 0.48451659, 48.03532791, -4.65111732, 17.99494553, 56.35778809, 1.92926037, -62.17480087, -101.10973358, 76.30910492, 151.31927490, -0.33846766, 0.53067636, 0.49110654, -0.60219312, -0.45817977, -0.16165408, -0.43891042, 0.00000000, 0.00000000, 0.00000000, 0.00000000
1, 0.5025, 175, 1.46883547, 0.40301958, 0.50449437, 47.28563690, -1.30147374, 15.94461155, 56.35778809, 1.92926037, -62.17480087, -101.00983429, 76.34886932, 151.30041504, -0.33814347, 0.53117901, 0.49029085, -0.60259676, -0.49708492, -0.17135370, -0.45942208, 0.00000000, 0.00000000, 0.00000000, 0.00000000
1, 0.5050, 176, 1.50694799, 0.41013944, 0.52627641, 46.52891159, 2.88011932, 13.83564854, 56.35778809, 1.92926037, -62.17480087, -100.94981384, 76.38145447, 151.24249268, -0.33775511, 0.53170782, 0.48953977, -0.60295868, -0.53506339, -0.17896909, -0.48155180, 0.00000000, 0.00000000, 0.00000000, 0.00000000
1, 0.5075, 177, 1.55195451, 0.41953522, 0.54587966, 45.69061279, 8.23698044, 11.81282330, 56.35778809, 1.92926037, -62.17480087, -100.94229889, 76.40653992, 151.13269043, -0.33729231, 0.53227878, 0.48886213, -0.60326374, -0.57996690, -0.18877682, -0.50126618, 0.00000000, 0.00000000, 0.00000000, 0.00000000
1, 0.5100, 178, 1.60493350, 0.43816742, 0.56695217, 45.49496078, 14.15049076, 10.00526905, 55.91932297, 1.90002918, -62.32095718, -100.99198151, 76.42436218, 150.96455383, -0.33674455, 0.53290623, 0.48825100, -0.60351068, -0.63287282, -0.20774472, -0.52219623, 0.00000000, 0.00000000, 0.00000000, 0.00000000
1, 0.5125, 179, 1.66988301, 0.46545753, 0.58825487, 45.79480743, 20.90724182, 7.71794748, 55.91932297, 1.90002918, -62.32095718, -101.10530090, 76.43328857, 150.73019409, -0.33609083, 0.53359979, 0.48771161, -0.60369837, -0.69778579, -0.23527220, -0.54307240, 0.00000000, 0.00000000, 0.00000000, 0.00000000
1, 0.5150, 180, 1.74355555, 0.49910668, 0.61476940, 46.44471359, 28.64985657, 4.60356903, 55.91932297, 1.90002918, -62.32095718, -101.28959656, 76.43068695, 150.42117310, -0.33530569, 0.53436631, 0.48725605, -0.60382485, -0.77146912, -0.26902425, -0.56883806, 0.00000000, 0.00000000, 0.00000000, 0.00000000
1, 0.5175, 181, 1.82276845, 0.52735370, 0.62530422, 47.08541489, 37.31013870, 0.38262287, 55.91932297, 1.90002918, -62.32095718, -101.55121613, 76.41316223, 150.03091431, -0.33436489, 0.53520584, 0.48690382, -0.60388708, -0.85075378, -0.29719201, -0.57826322, 0.00000000, 0.00000000, 0.00000000, 0.00000000
1, 0.5200, 182, 1.91764879, 0.54585820, 0.63443577, 48.50915146, 46.81634140, -4.31899261, 55.91932297, 1.90002918, -62.32095718, -101.89440918, 76.37879944, 149.55305481, -0.33324391, 0.53613001, 0.48665610, -0.60388660, -0.94577497, -0.31541210, -0.58589679, 0.00000000, 0.00000000, 0.00000000, 0.00000000
1, 0.5225, 183, 2.00591588, 0.58435440, 0.64474237, 50.07163239, 57.00857925, -8.52217865, 56.06547546, 1.22771120, -61.47325134, -102.32479095, 76.32805634, 148.98135376, -0.33194020, 0.53715384, 0.48650989, -0.60381252, -1.03425097, -0.35343882, -0.59429008, 0.00000000, 0.00000000, 0.00000000, 0.00000000
1, 0.5250, 184, 2.08797050, 0.63336259, 0.65729994, 51.34829712, 66.86402130, -13.49833679, 56.06547546, 1.22771120, -61.47325134, -102.83519745, 76.25872803, 148.32385254, -0.33045039, 0.53826231, 0.48647499, -0.60367066, -1.11659241, -0.40175924, -0.60453141, 0.00000000, 0.00000000, 0.00000000, 0.00000000
1, 0.5275, 185, 2.16930342, 0.68174058, 0.67070472, 52.62543106, 76.33480072, -20.43803596, 56.06547546, 1.22771120, -61.47325134, -103.41373444, 76.16563416, 147.59269714, -0.32875237, 0.53942901, 0.48657119, -0.60347879, -1.19831252, -0.44914684, -0.61523420, 0.00000000, 0.00000000, 0.00000000, 0.00000000
1, 0.5300, 186, 2.25347638, 0.72616327, 0.69516313, 53.90116882, 85.69347382, -29.05781555, 56.06547546, 1.22771120, -61.47325134, -104.05345917, 76.04375458, 146.79505920, -0.32682124, 0.54063636, 0.48682126, -0.60324562, -1.28299630, -0.49220055, -0.63659787, 0.00000000, 0.00000000, 0.00000000, 0.00000000
1, 0.5325, 187, 2.34311366, 0.77081561, 0.72254658, 54.31685257, 94.44841003, -39.43146896, 56.06547546, 1.22771120, -61.47325134, -104.73467255, 75.88956451, 145.95292664, -0.32465747, 0.54184616, 0.48724335, -0.60298771, -1.37328613, -0.53504092, -0.66053987, 0.00000000, 0.00000000, 0.00000000, 0.00000000
1, 0.5350, 188, 2.44585657, 0.80759537, 0.74587232, 54.59622955, 102.04911804, -51.35901642, 56.70856476, 3.01081562, -60.21630859, -105.43926239, 75.69918823, 145.08531189, -0.32225043, 0.54302734, 0.48785320, -0.60272318, -1.47684443, -0.56949604, -0.68011343, 0.00000000, 0.00000000, 0.00000000, 0.00000000
1, 0.5375, 189, 2.53786755, 0.83598036, 0.77679002, 55.81695175, 108.57495117, -64.84289551, 56.70856476, 3.01081562, -60.21630859, -106.14422607, 75.46931458, 144.21334839, -0.31957948, 0.54415488, 0.48864853, -0.60248411, -1.56985426, -0.59497589, -0.70702624, 0.00000000, 0.00000000, 0.00000000, 0.00000000
1, 0.5400, 190, 2.66409206, 0.86234891, 0.77913475, 57.68940353, 114.29792786, -79.73859406, 56.70856476, 3.01081562, -60.21630859, -106.83072662, 75.19707489, 143.35467529, -0.31662634, 0.54520643, 0.48963115, -0.60229492, -1.69728231, -0.61779779, -0.70515758, 0.00000000, 0.00000000, 0.00000000, 0.00000000
1, 0.5425, 191, 2.69949818, 0.88052917, 0.76577663, 60.06997299, 119.27826691, -95.55523682, 56.70856476, 3.01081562, -60.21630859, -107.48308563, 74.88084412, 142.52395630, -0.31338006, 0.54616445, 0.49079919, -0.60217404, -1.73411322, -0.63175035, -0.68741798, 0.00000000, 0.00000000, 0.00000000, 0.00000000
1, 0.5450, 192, 2.69949818, 0.88052917, 0.76577663, 60.06997299, 119.27826691, -95.55523682, 56.70856476, 3.01081562, -60.21630859, -108.10506439, 74.56226349, 141.72351074, -0.31012979, 0.54711545, 0.49196094, -0.60204542, -1.73557806, -0.62751710, -0.68305492, 0.00000000, 0.00000000, 0.00000000, 0.00000000
1, 0.5475, 193, 2.74031425, 0.84137219, 0.67979974, 74.65426636, 129.77485657, -142.25048828, 57.00087738, 3.68313360, -59.19321823, -108.61732483, 74.12253571, 140.99769592, -0.30597433, 0.54779273, 0.49355137, -0.60225403, -1.77846539, -0.58210659, -0.59246010, 0.00000000, 0.00000000, 0.00000000, 0.00000000
1, 0.5500, 194, 2.74031425, 0.84137219, 0.67979974, 74.65426636, 129.77485657, -142.25048828, 57.00087738, 3.68313360, -59.19321823, -109.09626007, 73.68112183, 140.30497742, -0.30181265, 0.54845893, 0.49513179, -0.60245043, -1.78060210, -0.57585132, -0.58787453, 0.00000000, 0.00000000, 0.00000000, 0.00000000
1, 0.5525, 195, 2.77436471, 0.84288502, 0.78325444, 76.85908508, 136.98257446, -167.68807983, 57.00087738, 3.68313360, -59.19321823, -109.52427673, 73.17224121, 139.65792847, -0.29720554, 0.54894716, 0.49702376, -0.60273814, -1.81718540, -0.57003492, -0.68650323, 0.00000000, 0.00000000, 0.00000000, 0.00000000
1, 0.5550, 196, 2.80041790, 0.84024507, 0.81309903, 74.92466736, 142.51390076, -181.45489502, 57.00087738, 3.68313360, -59.19321823, -109.92934418, 72.62496185, 139.03816223, -0.29237273, 0.54933172, 0.49912873, -0.60301197, -1.84604800, -0.55950326, -0.71130955, 0.00000000, 0.00000000, 0.00000000, 0.00000000
1, 0.5575, 197, 2.82341933, 0.80919987, 0.84239280, 76.08033752, 148.01918030, -196.14137268, 57.00087738, 3.68313360, -59.19321823, -110.30058289, 72.03725433, 138.44891357, -0.28726420, 0.54961985, 0.50141478, -0.60330808, -1.87216270, -0.51995707, -0.73539555, 0.00000000, 0.00000000, 0.00000000, 0.00000000
1, 0.5600, 198, 2.83250833, 0.76416665, 0.86526889, 79.60747528, 153.55319214, -211.25486755, 57.05933762, 5.55393171, -58.08243179, -110.63139343, 71.40823364, 137.89094543, -0.28184432, 0.54981911, 0.50385350, -0.60365093, -1.88469422, -0.46579018, -0.75293016, 0.00000000, 0.00000000, 0.00000000, 0.00000000
1, 0.5625, 199, 2.82583857, 0.71276420, 0.88135892, 84.64862823, 158.54847717, -226.45054626, 57.05933762, 5.55393171, -58.08243179, -110.91500092, 70.73832703, 137.36743164, -0.27609840, 0.54992741, 0.50641984, -0.60405999, -1.88181686, -0.40461645, -0.76359653, 0.00000000, 0.00000000, 0.00000000, 0.00000000
1, 0.5650, 200, 2.80187702, 0.65893513, 0.87227446, 90.19668579, 163.19351196, -241.09312439, 57.05933762, 5.55393171, -58.08243179, -111.15100098, 70.02933502, 136.87751770, -0.27003002, 0.54994553, 0.50909555, -0.60453749, -1.86200953, -0.34040403, -0.74903792, 0.00000000, 0.00000000, 0.00000000, 0.00000000
1, 0.5675, 201, 2.75886178, 0.59457099, 0.84571576, 97.61719513, 167.50321960, -255.32670593, 57.05933762, 5.55393171, -58.08243179, -111.33583832, 69.28266144, 136.42012024, -0.26362446, 0.54988045, 0.51184571, -0.60510135, -1.82352495, -0.26505777, -0.71700668, 0.00000000, 0.00000000, 0.00000000, 0.00000000
1, 0.5700, 202, 2.69644523, 0.51559603, 0.83742487, 106.33558655, 171.53048706, -268.44934082, 57.05933762, 5.55393171, -58.08243179, -111.46984863, 68.50134277, 135.99153137, -0.25688264, 0.54974407, 0.51463515, -0.60575867, -1.76601970, -0.17454606, -0.70328939, 0.00000000, 0.00000000, 0.00000000, 0.00000000
1, 0.5725, 203, 2.62087345, 0.43584210, 0.84503472, 114.11431122, 176.48870850, -279.66790771, 57.46857452, 8.47705364, -55.86085892, -111.56759644, 67.68907166, 135.57872009, -0.24982919, 0.54956007, 0.51745528, -0.60647285, -1.69573677, -0.08278935, -0.70548260, 0.00000000, 0.00000000, 0.00000000, 0.00000000
1, 0.5750, 204, 2.54697490, 0.35340455, 0.84306860, 120.80034637, 183.54803467, -288.61633301, 57.46857452, 8.47705364, -55.86085892, -111.64964294, 66.84927368, 135.16232300, -0.24248242, 0.54937154, 0.52030140, -0.60719001, -1.62750125, 0.01201312, -0.69802338, 0.00000000, 0.00000000, 0.00000000, 0.00000000
1, 0.5775, 205, 2.47791505, 0.27042717, 0.83741844, 127.26040649, 192.23081970, -295.23391724, 57.46857452, 8.47705364, -55.86085892, -111.72955322, 65.98583984, 134.72799683, -0.23485635, 0.54922158, 0.52315354, -0.60787219, -1.56447077, 0.10761736, -0.68675071, 0.00000000, 0.00000000, 0.00000000, 0.00000000
1, 0.5800, 206, 2.40724730, 0.19144849, 0.82670045, 134.07502747, 201.85331726, -299.74176025, 57.46857452, 8.47705364, -55.86085892, -111.81526947, 65.10334015, 134.26582336, -0.22696599, 0.54915017, 0.52598089, -0.60849380, -1.50017893, 0.19938691, -0.67025697, 0.00000000, 0.00000000, 0.00000000, 0.00000000
1, 0.5825, 207, 2.32925701, 0.11505914, 0.80442840, 141.17013550, 212.43685913, -303.53805542, 57.46857452, 8.47705364, -55.86085892, -111.90637207, 64.20132446, 133.77450562, -0.21879920, 0.54916567, 0.52877551, -0.60904884, -1.42892838, 0.28872710, -0.64205551, 0.00000000, 0.00000000, 0.00000000, 0.00000000
1, 0.5850, 208, 2.23785281, 0.04911102, 0.76975727, 148.25770569, 223.98423767, -306.97161865, 58.02396774, 11.72171879, -53.20081711, -112.00680542, 63.28021622, 133.24925232, -0.21035185, 0.54928654, 0.53153151, -0.60951680, -1.34463704, 0.36775690, -0.60127455, 0.00000000, 0.00000000, 0.00000000, 0.00000000
1, 0.5875, 209, 2.14000344, 0.00127508, 0.71289235, 155.19415283, 236.55563354, -309.55145264, 58.02396774, 11.72171879, -53.20081711, -112.11987305, 62.34087372, 132.68597412, -0.20162420, 0.54953176, 0.53424060, -0.60987675, -1.25427890, 0.42876902, -0.53809631, 0.00000000, 0.00000000, 0.00000000, 0.00000000
1, 0.5900, 210, 2.04065537, -0.01391037, 0.64186662, 161.04861450, 249.97860718, -309.66836548, 58.02396774, 11.72171879, -53.20081711, -112.25270081, 61.38803864, 132.07879639, -0.19265109, 0.54993278, 0.53688639, -0.61009222, -1.16277254, 0.45712045, -0.46052051, 0.00000000, 0.00000000, 0.00000000, 0.00000000
1, 0.5925, 211, 1.93778634, -0.00436634, 0.55974013, 163.81625366, 263.39361572, -306.69790649, 58.02396774, 11.72171879, -53.20081711, -112.41420746, 60.42861557, 131.42532349, -0.18351004, 0.55050981, 0.53946829, -0.61011231, -1.06804502, 0.46059069, -0.37156603, 0.00000000, 0.00000000, 0.00000000, 0.00000000
1, 0.5950, 212, 1.85048187, 0.01523622, 0.46698242, 163.71701050, 275.99926758, -302.40017700, 58.02396774, 11.72171879, -53.20081711, -112.60638428, 59.46605301, 130.73048401, -0.17426224, 0.55125445, 0.54200095, -0.60990679, -0.98915398, 0.45377830, -0.27168965, 0.00000000, 0.00000000, 0.00000000, 0.00000000
1, 0.5975, 213, 1.78292632, 0.03908898, 0.37571564, 160.82327271, 287.53796387, -297.96786499, 58.22858810, 15.49254608, -50.07307816, -112.82870483, 58.50134277, 130.00196838, -0.16495551, 0.55214256, 0.54451209, -0.60945451, -0.93027419, 0.44246387, -0.17300591, 0.00000000, 0.00000000, 0.00000000, 0.00000000
1, 0.6000, 214, 1.72521424, 0.06591433, 0.29473880, 155.99841309, 297.81890869, -293.96603394, 58.22858810, 15.49254608, -50.07307816, -113.07769012, 57.53425598, 129.24867249, -0.15562244, 0.55314553, 0.54702479, -0.60874921, -0.88150191, 0.42792368, -0.08432665, 0.00000000, 0.00000000, 0.00000000, 0.00000000
1, 0.6025, 215, 1.68704152, 0.09964024, 0.22763589, 150.17741394, 306.84634399, -290.11770630, 58.22858810, 15.49254608, -50.07307816, -113.34888458, 56.56533813, 128.47811890, -0.14628816, 0.55424172, 0.54954690, -0.60779446, -0.85252702, 0.40622485, -0.00926454, 0.00000000, 0.00000000, 0.00000000, 0.00000000
1, 0.6050, 216, 1.66463053, 0.14457190, 0.17301421, 143.79901123, 313.59780884, -287.20773315, 58.22858810, 15.49254608, -50.07307816, -113.63299561, 55.59433365, 127.70254517, -0.13697463, 0.55538893, 0.55208737, -0.60661411, -0.83957332, 0.37308770, 0.05350035, 0.00000000, 0.00000000, 0.00000000, 0.00000000
1, 0.6075, 217, 1.64899266, 0.18850543, 0.11298669, 137.29115295, 318.30157471, -286.28338623, 58.22858810, 15.49254608, -50.07307816, -113.92015839, 54.61856079, 126.93401337, -0.12768236, 0.55653667, 0.55466372, -0.60523736, -0.83367741, 0.34078121, 0.12178320, 0.00000000, 0.00000000, 0.00000000, 0.00000000
1, 0.6100, 218, 1.62512970, 0.21548973, 0.04049679, 131.00625610, 321.79293823, -287.40447998, 57.55627060, 19.52645493, -47.55919266, -114.20330811, 53.63449860, 126.18041229, -0.11839707, 0.55764586, 0.55729288, -0.60368699, -0.81987917, 0.32532394, 0.20259167, 0.00000000, 0.00000000, 0.00000000, 0.00000000
1, 0.6125, 219, 1.59184504, 0.22581841, -0.03956064, 124.73895264, 323.01376343, -289.46566772, 57.55627060, 19.52645493, -47.55919266, -114.47499084, 52.64235306, 125.45111084, -0.10913457, 0.55867583, 0.55997884, -0.60199237, -0.79698211, 0.32644588, 0.29095051, 0.00000000, 0.00000000, 0.00000000, 0.00000000
1, 0.6150, 220, 1.55231881, 0.22423671, -0.11404435, 119.06618500, 321.95071411, -291.27996826, 57.55627060, 19.52645493, -47.55919266, -114.72882843, 51.64518356, 124.75265503, -0.09991979, 0.55960208, 0.56270474, -0.60018748, -0.76813596, 0.33938926, 0.37362647, 0.00000000, 0.00000000, 0.00000000, 0.00000000
1, 0.6175, 221, 1.50938332, 0.21227339, -0.16851744, 114.77706909, 318.88046265, -292.35668945, 57.55627060, 19.52645493, -47.55919266, -114.95872498, 50.64701843, 124.08900452, -0.09077138, 0.56041199, 0.56543928, -0.59831220, -0.73612946, 0.36260632, 0.43608382, 0.00000000, 0.00000000, 0.00000000, 0.00000000
1, 0.6200, 222, 1.47218966, 0.19579375, -0.21476199, 112.58540344, 314.30422974, -293.32080078, 57.55627060, 19.52645493, -47.55919266, -115.15792847, 49.64995193, 123.46289825, -0.08168504, 0.56109285, 0.56815159, -0.59641111, -0.71008676, 0.39024425, 0.49000472, 0.00000000, 0.00000000, 0.00000000, 0.00000000
1, 0.6225, 223, 1.44313872, 0.17405640, -0.26037052, 112.84913635, 308.24078369, -295.15237427, 55.80239487, 22.59573174, -43.23297119, -115.31811523, 48.65395737, 122.87821960, -0.07263916, 0.56162018, 0.57081908, -0.59453505, -0.69240540, 0.42309618, 0.54287380, 0.00000000, 0.00000000, 0.00000000, 0.00000000
1, 0.6250, 224, 1.41227508, 0.15628672, -0.30029351, 115.13978577, 300.27731323, -298.27526855, 55.80239487, 22.59573174, -43.23297119, -115.43085480, 47.65853500, 122.34052277, -0.06361718, 0.56195718, 0.57342994, -0.59273529, -0.67313153, 0.45199740, 0.58952910, 0.00000000, 0.00000000, 0.00000000, 0.00000000
1, 0.6275, 225, 1.36615598, 0.13546474, -0.33803242, 118.73417664, 291.02136230, -302.11938477, 55.80239487, 22.59573174, -43.23297119, -115.49225616, 46.66384888, 121.85199738, -0.05461142, 0.56208032, 0.57597637, -0.59104538, -0.63881642, 0.48399967, 0.63339853, 0.00000000, 0.00000000, 0.00000000, 0.00000000
1, 0.6300, 226, 1.30380106, 0.11223523, -0.37601939, 123.05493164, 280.80831909, -306.32852173, 55.80239487, 22.59573174, -43.23297119, -115.49863434, 45.67497253, 121.41465759, -0.04564802, 0.56197697, 0.57842821, -0.58950734, -0.58841366, 0.51843393, 0.67681408, 0.00000000, 0.00000000, 0.00000000, 0.00000000
1, 0.6325, 227, 1.22217989, 0.08731288, -0.41362616, 128.02897644, 269.83966064, -310.55001831, 55.80239487, 22.59573174, -43.23297119, -115.45531464, 44.68393326, 121.02449036, -0.03667751, 0.56163114, 0.58083218, -0.58809799, -0.51898485, 0.55466115, 0.71921730, 0.00000000, 0.00000000, 0.00000000, 0.00000000
1, 0.6350, 228, 1.12458348, 0.05736655, -0.44895542, 132.92712402, 259.48141479, -313.99365234, 54.25314331, 27.18503380, -40.77754974, -115.36518860, 43.69655991, 120.67707825, -0.02773083, 0.56106335, 0.58315617, -0.58682859, -0.43374467, 0.59594136, 0.75868189, 0.00000000, 0.00000000, 0.00000000, 0.00000000
1, 0.6375, 229, 1.01883912, 0.02180407, -0.53286636, 136.88601685, 249.92329407, -316.02465820, 54.25314331, 27.18503380, -40.77754974, -115.23638153, 42.71529007, 120.36534882, -0.01882888, 0.56030107, 0.58539796, -0.58567691, -0.34048355, 0.64280432, 0.84612238, 0.00000000, 0.00000000, 0.00000000, 0.00000000
1, 0.6400, 230, 0.79964381, -0.03420570, -0.56455743, 138.75988770, 240.66665649, -316.43600464, 54.25314331, 27.18503380, -40.77754974, -115.07855225, 41.74349594, 120.08405304, -0.01001537, 0.55936825, 0.58756709, -0.58461249, -0.13384700, 0.70999932, 0.88081330, 0.00000000, 0.00000000, 0.00000000, 0.00000000
1, 0.6425, 231, 0.70244253, -0.05434442, -0.58055234, 138.91950989, 230.64878845, -313.49499512, 54.25314331, 27.18503380, -40.77754974, -114.89933777, 40.78955460, 119.82922363, -0.00136499, 0.55829906, 0.58964753, -0.58362335, -0.04916013, 0.74108446, 0.89931649, 0.00000000, 0.00000000, 0.00000000, 0.00000000
1, 0.6450, 232, 0.70244253, -0.05434442, -0.58055234, 138.91950989, 230.64878845, -313.49499512, 54.25314331, 27.18503380, -40.77754974, -114.71712494, 39.83622360, 119.57407379, 0.00728550, 0.55718446, 0.59167999, -0.58258677, -0.06184742, 0.75187320, 0.90163189, 0.00000000, 0.00000000, 0.00000000, 0.00000000
1, 0.6475, 233, 0.53833318, -0.10196477, -0.55320650, 130.70640564, 199.25221252, -308.08886719, 54.25314331, 27.18503380, -40.77754974, -114.49884796, 38.92855072, 119.40309906, 0.01536166, 0.55569911, 0.59371066, -0.58178186, 0.09001742, 0.80985796, 0.87579429, 0.00000000, 0.00000000, 0.00000000, 0.00000000
1, 0.6500, 234, 0.53833318, -0.10196477, -0.55320650, 130.70640564, 199.25221252, -308.08886719, 52.14849472, 30.42969894, -38.99444580, -114.27986908, 38.02138901, 119.22985840, 0.02343672, 0.55417377, 0.59569854, -0.58093506, 0.07762223, 0.82006526, 0.87713718, 0.00000000, 0.00000000, 0.00000000, 0.00000000
1, 0.6525, 235, 0.36733174, -0.19478031, -0.46226251, 120.35239410, 183.77911377, -299.17263794, 52.14849472, 30.42969894, -38.99444580, -114.06589508, 37.15092468, 119.08739471, 0.03107092, 0.55253524, 0.59767663, -0.58010519, 0.23658469, 0.92254651, 0.78728765, 0.00000000, 0.00000000, 0.00000000, 0.00000000
1, 0.6550, 236, 0.28964674, -0.24926180, -0.40843740, 115.08003235, 179.25871277, -292.29263306, 52.14849472, 30.42969894, -38.99444580, -113.86227417, 36.30117416, 118.94678497, 0.03849358, 0.55089742, 0.59960347, -0.57922876, 0.30238277, 0.98628896, 0.73446196, 0.00000000, 0.00000000, 0.00000000, 0.00000000
1, 0.6575, 237, 0.21568885, -0.29112330, -0.35039422, 110.21645355, 177.63273621, -284.25567627, 52.14849472, 30.42969894, -38.99444580, -113.67356873, 35.47184372, 118.79865265, 0.04573265, 0.54931486, 0.60146010, -0.57827979, 0.36461380, 1.03699100, 0.67739630, 0.00000000, 0.00000000, 0.00000000, 0.00000000
1, 0.6600, 238, 0.14490701, -0.31840158, -0.30533159, 105.40363312, 178.69342041, -275.27319336, 52.14849472, 30.42969894, -38.99444580, -113.50412750, 34.66240692, 118.63493347, 0.05281199, 0.54783654, 0.60323393, -0.57723045, 0.42383289, 1.07267630, 0.63336360, 0.00000000, 0.00000000, 0.00000000, 0.00000000
1, 0.6625, 239, 0.07989947, -0.34317145, -0.27050704, 100.57548523, 181.74769592, -265.35449219, 49.80999756, 35.19438553, -37.64981079, -113.35701752, 33.87306213, 118.44966125, 0.05974600, 0.54650247, 0.60491312, -0.57606047, 0.47745535, 1.10540736, 0.59967673, 0.00000000, 0.00000000, 0.00000000, 0.00000000
1, 0.6650, 240, 0.02326628, -0.36249298, -0.22706236, 95.23502350, 186.09411621, -254.22755432, 49.80999756, 35.19438553, -37.64981079, -113.23534393, 33.10532379, 118.23870087, 0.06653073, 0.54534793, 0.60648918, -0.57475239, 0.52291352, 1.13222003, 0.55752933, 0.00000000, 0.00000000, 0.00000000, 0.00000000
1, 0.6675, 241, -0.03148086, -0.38946292, -0.20707834, 89.88676453, 191.47030640, -242.52711487, 49.80999756, 35.19438553, -37.64981079, -113.13999176, 32.35952377, 117.99942780, 0.07317289, 0.54439592, 0.60795462, -0.57329756, 0.56671101, 1.16621089, 0.53902984, 0.00000000, 0.00000000, 0.00000000, 0.00000000
1, 0.6700, 242, -0.07666802, -0.40965945, -0.18481067, 85.03994751, 197.05894470, -230.82542419, 49.80999756, 35.19438553, -37.64981079, -113.06903076, 31.63543892, 117.73213196, 0.07968173, 0.54365051, 0.60930347, -0.57170302, 0.60118061, 1.19297886, 0.51842380, 0.00000000, 0.00000000, 0.00000000, 0.00000000
1, 0.6725, 243, -0.12305441, -0.42578638, -0.18972825, 80.61701965, 203.55059814, -219.04295349, 49.80999756, 35.19438553, -37.64981079, -113.02175903, 30.93233871, 117.43505096, 0.08607376, 0.54312509, 0.61052817, -0.56996667, 0.63707995, 1.21524549, 0.52518713, 0.00000000, 0.00000000, 0.00000000, 0.00000000
1, 0.6750, 244, -0.16453360, -0.44405830, -0.21509570, 78.21214294, 209.49942017, -206.78483582, 47.90996552, 38.14673996, -36.18824768, -112.99179840, 30.25180626, 117.10972595, 0.09236024, 0.54281694, 0.61159891, -0.56812513, 0.66833466, 1.23925710, 0.55250257, 0.00000000, 0.00000000, 0.00000000, 0.00000000
1, 0.6775, 245, -0.19947976, -0.44976106, -0.26631215, 77.18791199, 213.78833008, -193.85437012, 47.90996552, 38.14673996, -36.18824768, -112.97312927, 29.59696198, 116.76033783, 0.09852756, 0.54271311, 0.61249411, -0.56622064, 0.69337535, 1.25031900, 0.60568523, 0.00000000, 0.00000000, 0.00000000, 0.00000000
1, 0.6800, 246, -0.24375354, -0.40960827, -0.30324361, 75.03236389, 215.84761047, -180.74060059, 47.90996552, 38.14673996, -36.18824768, -112.96313477, 28.97077560, 116.39395142, 0.10453296, 0.54278564, 0.61322373, -0.56428128, 0.72811699, 1.21514773, 0.64456278, 0.00000000, 0.00000000, 0.00000000, 0.00000000
1, 0.6825, 247, -0.28777510, -0.37676299, -0.34493092, 71.09715271, 215.68545532, -168.35055542, 47.90996552, 38.14673996, -36.18824768, -112.96710205, 28.37287521, 116.01525879, 0.11033081, 0.54301614, 0.61383849, -0.56228369, 0.76298267, 1.18688846, 0.68825930, 0.00000000, 0.00000000, 0.00000000, 0.00000000
1, 0.6850, 248, -0.32483694, -0.35208610, -0.38052550, 65.73483276, 214.07238770, -157.02458191, 47.90996552, 38.14673996, -36.18824768, -112.98394012, 27.80256462, 115.63043976, 0.11590056, 0.54337144, 0.61436617, -0.56024003, 0.79126322, 1.16642535, 0.72592211, 0.00000000, 0.00000000, 0.00000000, 0.00000000
1, 0.6875, 249, -0.35636613, -0.34563011, -0.41250002, 60.02434921, 211.01080322, -146.27667236, 45.22069550, 40.71908569, -34.46360779, -113.01253510, 27.25983810, 115.24396515, 0.12122624, 0.54382920, 0.61482280, -0.55816400, 0.81439281, 1.16382694, 0.76001471, 0.00000000, 0.00000000, 0.00000000, 0.00000000
1, 0.6900, 250, -0.38492075, -0.34015331, -0.42653260, 54.39722443, 206.50242615, -135.96827698, 45.22069550, 40.71908569, -34.46360779, -113.05087280, 26.74503136, 114.86000061, 0.12629531, 0.54436785, 0.61521810, -0.55607551, 0.83494186, 1.16187096, 0.77619195, 0.00000000, 0.00000000, 0.00000000, 0.00000000
1, 0.6925, 251, -0.41507342, -0.34283164, -0.45547265, 49.70860291, 201.51814270, -125.66939545, 45.22069550, 40.71908569, -34.46360779, -113.09631348, 26.25854683, 114.47967529, 0.13111317, 0.54498118, 0.61554366, -0.55399537, 0.85749578, 1.16775668, 0.80726957, 0.00000000, 0.00000000, 0.00000000, 0.00000000
1, 0.6950, 252, -0.44271106, -0.35616484, -0.46918407, 47.40406799, 195.10313416, -115.46768188, 45.22069550, 40.71908569, -34.46360779, -113.14152527, 25.80154610, 114.10659790, 0.13569070, 0.54564607, 0.61577767, -0.55197495, 0.87796628, 1.18403065, 0.82300746, 0.00000000, 0.00000000, 0.00000000, 0.00000000
1, 0.6975, 253, -0.47817066, -0.35074681, -0.44678858, 45.24870300, 188.06410217, -105.13500214, 45.22069550, 40.71908569, -34.46360779, -113.18589783, 25.37495995, 113.74196625, 0.14002028, 0.54635817, 0.61592048, -0.55002648, 0.90671110, 1.18129468, 0.80251932, 0.00000000, 0.00000000, 0.00000000, 0.00000000
1, 0.7000, 254, -0.51468521, -0.35711062, -0.42615986, 42.51830673, 180.82955933, -95.92214203, 43.64220810, 41.56679153, -33.67436218, -113.23047638, 24.97641563, 113.38727570, 0.14410648, 0.54710352, 0.61599481, -0.54814363, 0.93693024, 1.19010031, 0.78370363, 0.00000000, 0.00000000, 0.00000000, 0.00000000
1, 0.7025, 255, -0.54093426, -0.36982265, -0.38805291, 40.14354324, 174.01712036, -86.91455078, 43.64220810, 41.56679153, -33.67436218, -113.27512360, 24.60503006, 113.04149628, 0.14796223, 0.54788524, 0.61599928, -0.54632771, 0.95729500, 1.20503032, 0.74731958, 0.00000000, 0.00000000, 0.00000000, 0.00000000
1, 0.7050, 256, -0.56365734, -0.39225379, -0.35694504, 38.42163467, 166.45352173, -78.19903564, 43.64220810, 41.56679153, -33.67436218, -113.31756592, 24.26089859, 112.70661926, 0.15158923, 0.54868960, 0.61593354, -0.54459745, 0.97454971, 1.22947657, 0.71781391, 0.00000000, 0.00000000, 0.00000000, 0.00000000
1, 0.7075, 257, -0.57245219, -0.40076110, -0.31489915, 37.28709412, 157.43908691, -69.36523438, 43.64220810, 41.56679153, -33.67436218, -113.35530090, 23.94575310, 112.38595581, 0.15497419, 0.54950070, 0.61579561, -0.54298049, 0.97832382, 1.23980808, 0.67720968, 0.00000000, 0.00000000, 0.00000000, 0.00000000
1, 0.7100, 258, -0.58678037, -0.40147242, -0.25231561, 35.59331131, 146.35752869, -61.53678894, 43.64220810, 41.56679153, -33.67436218, -113.38755035, 23.65939140, 112.08556366, 0.15809511, 0.55028391, 0.61561298, -0.54149264, 0.98807919, 1.24216688, 0.61589909, 0.00000000, 0.00000000, 0.00000000, 0.00000000
1, 0.7125, 259, -0.63238573, -0.45332819, -0.20841400, 35.17356491, 137.51794434, -54.59133911, 41.27447891, 42.99912262, -32.30049515, -113.41340637, 23.39759445, 111.80055237, 0.16100836, 0.55105096, 0.61537516, -0.54012281, 1.02949524, 1.29553223, 0.57310146, 0.00000000, 0.00000000, 0.00000000, 0.00000000
1, 0.7150, 260, -0.68759233, -0.52329868, -0.19055371, 37.03163528, 131.71554565, -45.65381622, 41.27447891, 42.99912262, -32.30049515, -113.43130493, 23.16197586, 111.52099609, 0.16375904, 0.55185735, 0.61502188, -0.53887343, 1.08092403, 1.36687994, 0.55615056, 0.00000000, 0.00000000, 0.00000000, 0.00000000
1, 0.7175, 261, -0.73632455, -0.56362242, -0.19779210, 39.38787079, 127.04545593, -33.55527115, 41.27447891, 42.99912262, -32.30049515, -113.44269562, 22.95867538, 111.24054718, 0.16633168, 0.55275750, 0.61450624, -0.53775007, 1.12639177, 1.40840626, 0.56410956, 0.00000000, 0.00000000, 0.00000000, 0.00000000
1, 0.7200, 262, -0.77970678, -0.57514584, -0.20557809, 41.38468933, 122.68852234, -19.56291580, 41.27447891, 42.99912262, -32.30049515, -113.44973755, 22.79176712, 110.95625305, 0.16870438, 0.55378211, 0.61380887, -0.53675210, 1.16708970, 1.42092335, 0.57245004, 0.00000000, 0.00000000, 0.00000000, 0.00000000
1, 0.7225, 263, -0.80623311, -0.56917316, -0.19333479, 42.23449707, 117.97246552, -5.43180609, 41.27447891, 42.99912262, -32.30049515, -113.45521545, 22.66193199, 110.66876984, 0.17085741, 0.55493337, 0.61294341, -0.53587043, 1.19152594, 1.41571856, 0.56063604, 0.00000000, 0.00000000, 0.00000000, 0.00000000
1, 0.7250, 264, -0.81241727, -0.55368656, -0.17781036, 41.56695557, 114.01931000, 7.73544741, 41.09909439, 43.46682358, -31.56971550, -113.46343231, 22.56620026, 110.37715912, 0.17279433, 0.55621296, 0.61193663, -0.53507286, 1.19616795, 1.40076900, 0.54548895, 0.00000000, 0.00000000, 0.00000000, 0.00000000
1, 0.7275, 265, -0.79303718, -0.55159831, -0.18001765, 40.53469467, 110.56063080, 20.07131577, 41.09909439, 43.46682358, -31.56971550, -113.47557831, 22.50215340, 110.08103180, 0.17452732, 0.55761683, 0.61080098, -0.53434622, 1.17575550, 1.39899564, 0.54804647, 0.00000000, 0.00000000, 0.00000000, 0.00000000
1, 0.7300, 266, -0.76225263, -0.54671168, -0.17646216, 40.00748825, 106.83409882, 32.12214661, 41.09909439, 43.46682358, -31.56971550, -113.49202728, 22.45464897, 109.78115082, 0.17614841, 0.55909508, 0.60959977, -0.53364092, 1.14420485, 1.39429402, 0.54486054, 0.00000000, 0.00000000, 0.00000000, 0.00000000
1, 0.7325, 267, -0.73399746, -0.54020661, -0.16652243, 40.05558395, 103.04699707, 43.96044922, 41.09909439, 43.46682358, -31.56971550, -113.50763702, 22.45271301, 109.47810364, 0.17749505, 0.56072360, 0.60819912, -0.53308380, 1.11591816, 1.38770008, 0.53515673, 0.00000000, 0.00000000, 0.00000000, 0.00000000
1, 0.7350, 268, -0.71713150, -0.53401768, -0.15534225, 40.09922028, 99.74895477, 55.52563858, 41.09909439, 43.46682358, -31.56971550, -113.52484894, 22.48049164, 109.17072296, 0.17866275, 0.56246322, 0.60666519, -0.53260881, 1.09950018, 1.38123047, 0.52415711, 0.00000000, 0.00000000, 0.00000000, 0.00000000
1, 0.7375, 269, -0.70877212, -0.54123741, -0.12907526, 40.21157837, 96.73731995, 66.53495789, 40.57293320, 43.29143524, -31.42355919, -113.54372406, 22.53643227, 108.85881805, 0.17966275, 0.56430906, 0.60500216, -0.53221130, 1.09204280, 1.38798618, 0.49802005, 0.00000000, 0.00000000, 0.00000000, 0.00000000
1, 0.7400, 270, -0.71231544, -0.55992663, -0.12141128, 39.96253586, 93.99597931, 77.75897217, 40.57293320, 43.29143524, -31.42355919, -113.56570435, 22.62072563, 108.54138947, 0.18049185, 0.56626803, 0.60321009, -0.53188431, 1.09694481, 1.40601623, 0.49045503, 0.00000000, 0.00000000, 0.00000000, 0.00000000
1, 0.7425, 271, -0.71135002, -0.57372421, -0.10182850, 39.44146729, 91.34544373, 100.66507721, 40.57293320, 43.29143524, -31.42355919, -113.59670258, 22.76001740, 108.20541382, 0.18101224, 0.56849468, 0.60114616, -0.53166866, 1.09822202, 1.41875434, 0.47095457, 0.00000000, 0.00000000, 0.00000000, 0.00000000
1, 0.7450, 272, -0.71135002, -0.57372421, -0.10182850, 39.44146729, 91.34544373, 100.66507721, 40.57293320, 43.29143524, -31.42355919, -113.62861633, 22.89913559, 107.86901855, 0.18153091, 0.57071602, 0.59907663, -0.53144807, 1.10046017, 1.41768575, 0.47104764, 0.00000000, 0.00000000, 0.00000000, 0.00000000
1, 0.7475, 273, -0.68970877, -0.62176645, -0.02757907, 38.81542969, 84.11621857, 123.99902344, 40.57293320, 43.29143524, -31.42355919, -113.66611481, 23.09875679, 107.52467346, 0.18167485, 0.57315493, 0.59674615, -0.53139609, 1.08202577, 1.46423924, 0.39680403, 0.00000000, 0.00000000, 0.00000000, 0.00000000
1, 0.7500, 274, -0.68970877, -0.62176645, -0.02757907, 38.81542969, 84.11621857, 123.99902344, 40.13446426, 43.26220322, -32.06664658, -113.70498657, 23.29816437, 107.17967224, 0.18181671, 0.57558733, 0.59440881, -0.53133804, 1.08522475, 1.46273327, 0.39682424, 0.00000000, 0.00000000, 0.00000000, 0.00000000
1, 0.7525, 275, -0.66187131, -0.66874653, 0.05180622, 43.54416275, 81.17291260, 146.60426331, 40.13446426, 43.26220322, -32.06664658, -113.74050140, 23.55206680, 106.81649780, 0.18171543, 0.57825261, 0.59173685, -0.53146112, 1.06145346, 1.50787163, 0.31725091, 0.00000000, 0.00000000, 0.00000000, 0.00000000
1, 0.7550, 276, -0.65501404, -0.69832247, 0.07626768, 47.95504379, 79.86875916, 157.27297974, 40.13446426, 43.26220322, -32.06664658, -113.77030182, 23.83150673, 106.44396210, 0.18152653, 0.58101434, 0.58887541, -0.53169197, 1.05906248, 1.53546262, 0.29243597, 0.00000000, 0.00000000, 0.00000000, 0.00000000
1, 0.7575, 277, -0.65022659, -0.74119705, 0.08427753, 53.80036163, 78.92751312, 167.73213196, 40.13446426, 43.26220322, -32.06664658, -113.79135132, 24.13566971, 106.06126404, 0.18127525, 0.58386648, 0.58580738, -0.53204221, 1.05912519, 1.57622671, 0.28386325, 0.00000000, 0.00000000, 0.00000000, 0.00000000
1, 0.7600, 278, -0.65814871, -0.77583718, 0.07105491, 61.52101517, 77.43115997, 179.36660767, 40.13446426, 43.26220322, -32.06664658, -113.79922485, 24.46786308, 105.66841125, 0.18096474, 0.58680850, 0.58249646, -0.53254628, 1.07233167, 1.60863352, 0.29623765, 0.00000000, 0.00000000, 0.00000000, 0.00000000
1, 0.7625, 279, -0.68272173, -0.79704863, 0.05904955, 69.60907745, 75.22270966, 192.45895386, 40.25138855, 42.70681000, -30.89739799, -113.79324341, 24.83223152, 105.26548767, 0.18057370, 0.58984673, 0.57892025, -0.53322160, 1.10268426, 1.62745595, 0.30708608, 0.00000000, 0.00000000, 0.00000000, 0.00000000
1, 0.7650, 280, -0.70625961, -0.79779667, 0.05212105, 76.48412323, 72.15113068, 206.87243652, 40.25138855, 42.70681000, -30.89739799, -113.77652740, 25.23273468, 104.85312653, 0.18006034, 0.59298998, 0.57507676, -0.53406727, 1.13255572, 1.62560391, 0.31257975, 0.00000000, 0.00000000, 0.00000000, 0.00000000
1, 0.7675, 281, -0.70696580, -0.79267645, 0.06356525, 80.99423981, 68.28699493, 221.84240723, 40.25138855, 42.70681000, -30.89739799, -113.75478363, 25.67151451, 104.43256378, 0.17937751, 0.59624219, 0.57098657, -0.53506380, 1.14017677, 1.61760974, 0.29949561, 0.00000000, 0.00000000, 0.00000000, 0.00000000
1, 0.7700, 282, -0.70552689, -0.82484883, 0.09594088, 84.98802185, 65.88312531, 236.13446045, 40.25138855, 42.70681000, -30.89739799, -113.73101044, 26.14556503, 104.00070190, 0.17854442, 0.59961063, 0.56665599, -0.53618097, 1.14617991, 1.64662337, 0.26532277, 0.00000000, 0.00000000, 0.00000000, 0.00000000
1, 0.7725, 283, -0.71795887, -0.87856764, 0.12605990, 90.24897766, 66.61471558, 249.97534180, 40.25138855, 42.70681000, -30.89739799, -113.70583344, 26.65073395, 103.54985809, 0.17762123, 0.60311782, 0.56206065, -0.53738940, 1.16650939, 1.69691169, 0.23326676, 0.00000000, 0.00000000, 0.00000000, 0.00000000
1, 0.7750, 284, -0.73830998, -0.92731476, 0.14979480, 96.21514893, 69.13892365, 264.74743652, 41.56679153, 41.59602356, -31.04355431, -113.68070984, 27.18734360, 103.07406616, 0.17662761, 0.60678983, 0.55717003, -0.53867459, 1.19521129, 1.74193311, 0.20746996, 0.00000000, 0.00000000, 0.00000000, 0.00000000
1, 0.7775, 285, -0.76879805, -0.97507256, 0.15254764, 101.38115692, 73.08228302, 281.28988647, 41.56679153, 41.59602356, -31.04355431, -113.66105652, 27.75804710, 102.56726074, 0.17554839, 0.61066353, 0.55196083, -0.54001129, 1.23453689, 1.78560507, 0.20259367, 0.00000000, 0.00000000, 0.00000000, 0.00000000
1, 0.7800, 286, -0.80002367, -1.01661396, 0.15881868, 105.18362427, 77.05354309, 299.65560913, 41.56679153, 41.59602356, -31.04355431, -113.65717316, 28.36471558, 102.02400208, 0.17434372, 0.61477578, 0.54643816, -0.54135066, 1.27510619, 1.82260823, 0.19426887, 0.00000000, 0.00000000, 0.00000000, 0.00000000
1, 0.7825, 287, -0.82395428, -1.05397058, 0.17577003, 108.13175964, 80.23536682, 319.27236938, 41.56679153, 41.59602356, -31.04355431, -113.66268158, 29.01530838, 101.44944000, 0.17297484, 0.61910051, 0.54055822, -0.54276246, 1.30899739, 1.85493779, 0.17520718, 0.00000000, 0.00000000, 0.00000000, 0.00000000
1, 0.7850, 288, -0.82808441, -1.08933818, 0.17169333, 111.07740021, 83.69633484, 338.75299072, 41.56679153, 41.59602356, -31.04355431, -113.68409729, 29.70689774, 100.83943176, 0.17144543, 0.62364745, 0.53433466, -0.54420298, 1.32364750, 1.88475406, 0.17720592, 0.00000000, 0.00000000, 0.00000000, 0.00000000
1, 0.7875, 289, -0.80900306, -1.12919056, 0.14477170, 114.09252167, 87.37227631, 357.81668091, 42.38526535, 40.48523712, -30.78047371, -113.72290039, 30.43815804, 100.19279480, 0.16976205, 0.62840700, 0.52776617, -0.54566330, 1.31561089, 1.91851497, 0.20209315, 0.00000000, 0.00000000, 0.00000000, 0.00000000
1, 0.7900, 290, -0.76905161, -1.18150830, 0.11077343, 117.97574615, 90.42984772, 377.07897949, 42.38526535, 40.48523712, -30.78047371, -113.77796936, 31.20995140, 99.50971985, 0.16792518, 0.63336354, 0.52083683, -0.54715711, 1.28722727, 1.96418321, 0.23406722, 0.00000000, 0.00000000, 0.00000000, 0.00000000
1, 0.7925, 291, -0.72135222, -1.23933113, 0.10331407, 123.80165863, 93.23298645, 396.05169678, 42.38526535, 40.48523712, -30.78047371, -113.84581757, 32.02168274, 98.78992462, 0.16596039, 0.63849568, 0.51352268, -0.54870290, 1.25159216, 2.01480389, 0.23945051, 0.00000000, 0.00000000, 0.00000000, 0.00000000
1, 0.7950, 292, -0.69164664, -1.27351665, 0.10492944, 131.63012695, 97.10887146, 414.05331421, 42.38526535, 40.48523712, -30.78047371, -113.92432404, 32.86985779, 98.03025055, 0.16391765, 0.64379001, 0.50580382, -0.55029809, 1.23437905, 2.04125953, 0.23567668, 0.00000000, 0.00000000, 0.00000000, 0.00000000
1, 0.7975, 293, -0.68281549, -1.27861285, 0.09444655, 139.23205566, 102.17077637, 431.37228394, 42.38526535, 40.48523712, -30.78047371, -114.01752472, 33.75148392, 97.22673798, 0.16181345, 0.64924556, 0.49768260, -0.55191380, 1.23840737, 2.03808236, 0.24396887, 0.00000000, 0.00000000, 0.00000000, 0.00000000
1, 0.8275, 294, 0.39685982, -0.80471122, -0.44184428, 105.64546204, -20.19051552, 564.59735107, 47.29611206, 29.87430573, -31.97895241, -117.44187927, 47.14814377, 86.11095428, 0.11436842, 0.71413165, 0.38305178, -0.57463670, 0.33625466, 1.40829086, 0.75526965, 0.00000000, 0.00000000, 0.00000000, 0.00000000
1, 0.8300, 295, 0.45242652, -0.77312839, -0.50061810, 99.76393890, -39.07624054, 564.15069580, 47.29611206, 29.87430573, -31.97895241, -117.81734467, 48.45026398, 85.26670074, 0.10847456, 0.71805239, 0.37304100, -0.57747251, 0.29595360, 1.35975122, 0.81013596, 0.00000000, 0.00000000, 0.00000000, 0.00000000
1, 0.8325, 296, 0.50134772, -0.77462482, -0.55230856, 91.59675598, -59.46270752, 565.29974365, 47.29611206, 29.87430573, -31.97895241, -118.20325470, 49.76775360, 84.45336914, 0.10229553, 0.72163022, 0.36314338, -0.58044147, 0.26208472, 1.34383094, 0.85755521, 0.00000000, 0.00000000, 0.00000000, 0.00000000
1, 0.8350, 297, 0.58034855, -0.86380845, -0.51424372, 84.37434387, -80.95922089, 567.13000488, 47.29611206, 29.87430573, -31.97895241, -118.59304047, 51.11116791, 83.67422485, 0.09579312, 0.72485203, 0.35329881, -0.58360368, 0.19801682, 1.41505325, 0.81470490, 0.00000000, 0.00000000, 0.00000000, 0.00000000
1, 0.8375, 298, 0.69512898, -0.99447167, -0.47835347, 84.33091736, -101.21815491, 569.37335205, 47.29611206, 29.87430573, -31.97895241, -118.97122955, 52.48052979, 82.92472839, 0.08908990, 0.72771651, 0.34340474, -0.58699650, 0.09801726, 1.52729082, 0.77334970, 0.00000000, 0.00000000, 0.00000000, 0.00000000
1, 0.8400, 299, 0.69045764, -1.08560026, -0.48633766, 92.74143219, -117.62712860, 574.01910400, 49.60537720, 25.51885414, -33.32358932, -119.33001709, 53.87700653, 82.18695068, 0.08232310, 0.73026925, 0.33330449, -0.59062505, 0.11729552, 1.59955263, 0.77510798, 0.00000000, 0.00000000, 0.00000000, 0.00000000
1, 0.8425, 300, 0.69045764, -1.08560026, -0.48633766, 92.74143219, -117.62712860, 574.01910400, 49.60537720, 25.51885414, -33.32358932, -119.73281860, 55.27052307, 81.40815735, 0.07554250, 0.73269963, 0.32314840, -0.59415466, 0.13139322, 1.58030045, 0.76888490, 0.00000000, 0.00000000, 0.00000000, 0.00000000
1, 0.8450, 301, 0.79354048, -1.07765841, -0.57025468, 109.56774139, -146.13238525, 612.95391846, 49.60537720, 25.51885414, -33.32358932, -120.12360382, 56.78077316, 80.60669708, 0.06831169, 0.73487461, 0.31214052, -0.59821498, 0.04303986, 1.55151367, 0.84519947, 0.00000000, 0.00000000, 0.00000000, 0.00000000
1, 0.8475, 302, 0.79354048, -1.07765841, -0.57025468, 109.56774139, -146.13238525, 612.95391846, 49.60537720, 25.51885414, -33.32358932, -120.57103729, 58.28769302, 79.75180054, 0.06106758, 0.73690653, 0.30107188, -0.60215890, 0.05715759, 1.53024721, 0.83760583, 0.00000000, 0.00000000, 0.00000000, 0.00000000
1, 0.8500, 303, 1.06282842, -1.01813662, -0.56170774, 118.09437561, -156.05242920, 636.64099121, 49.60537720, 25.51885414, -33.32358932, -121.07779694, 59.85431290, 78.81697083, 0.05357190, 0.73880279, 0.28946266, -0.60622758, -0.19807735, 1.44825530, 0.82094407, 0.00000000, 0.00000000, 0.00000000, 0.00000000
1, 0.8525, 304, 1.18529344, -0.94790435, -0.58471185, 120.85395813, -158.08862305, 644.43762207, 51.82695007, 20.25723457, -34.96053696, -121.66692352, 61.43556976, 77.79448700, 0.04599329, 0.74056017, 0.27763185, -0.61022604, -0.30701363, 1.35486233, 0.83572948, 0.00000000, 0.00000000, 0.00000000, 0.00000000
1, 0.8550, 305, 1.30028892, -0.87522894, -0.59177756, 119.93682861, -159.16224670, 650.51092529, 51.82695007, 20.25723457, -34.96053696, -122.36370087, 63.02539444, 76.66828156, 0.03830251, 0.74217927, 0.26565561, -0.61410916, -0.40908158, 1.25836682, 0.83458364, 0.00000000, 0.00000000, 0.00000000, 0.00000000
1, 0.8575, 306, 1.41112530, -0.80678946, -0.57898146, 114.84686279, -159.79342651, 656.81359863, 51.82695007, 20.25723457, -34.96053696, -123.20209503, 64.62216949, 75.41426849, 0.03043273, 0.74366593, 0.25358704, -0.61784184, -0.50762427, 1.16540635, 0.81367213, 0.00000000, 0.00000000, 0.00000000, 0.00000000
1, 0.8600, 307, 1.53784621, -0.75332797, -0.54518485, 107.22575378, -158.83482361, 661.81732178, 51.82695007, 20.25723457, -34.96053696, -124.21947479, 66.21888733, 74.00087738, 0.02237034, 0.74503106, 0.24148238, -0.62138122, -0.62275386, 1.08676660, 0.77195501, 0.00000000, 0.00000000, 0.00000000, 0.00000000
1, 0.8625, 308, 1.66786778, -0.70650578, -0.51027459, 99.86174011, -154.71165466, 663.92553711, 51.82695007, 20.25723457, -34.96053696, -125.45653534, 67.80217743, 72.38608551, 0.01417636, 0.74629843, 0.22938670, -0.62467539, -0.74198300, 1.01424980, 0.72943389, 0.00000000, 0.00000000, 0.00000000, 0.00000000
1, 0.8650, 309, 1.80541396, -0.64708650, -0.45966789, 94.06187439, -148.87689209, 663.81378174, 52.96696854, 15.20023346, -38.17597198, -126.95480347, 69.36117554, 70.52426147, 0.00591549, 0.74747854, 0.21731845, -0.62770498, -0.86959320, 0.92875361, 0.67157078, 0.00000000, 0.00000000, 0.00000000, 0.00000000
1, 0.8675, 310, 1.95349658, -0.54783458, -0.40566239, 87.90541077, -143.58070374, 662.50683594, 52.96696854, 15.20023346, -38.17597198, -128.76306152, 70.88930511, 68.36803436, -0.00240410, 0.74855876, 0.20530653, -0.63047856, -1.00860882, 0.80311811, 0.61064440, 0.00000000, 0.00000000, 0.00000000, 0.00000000
1, 0.8700, 311, 2.12041903, -0.40386149, -0.36078665, 79.17907715, -140.77156067, 659.28637695, 52.96696854, 15.20023346, -38.17597198, -130.93258667, 72.38043976, 65.87375641, -0.01080879, 0.74949747, 0.19342205, -0.63302821, -1.16733193, 0.63254249, 0.55910379, 0.00000000, 0.00000000, 0.00000000, 0.00000000
1, 0.8725, 312, 2.29567647, -0.24652523, -0.31059110, 68.37831116, -139.92170715, 651.70977783, 52.96696854, 15.20023346, -38.17597198, -133.51327515, 73.82239532, 62.99821854, -0.01927954, 0.75025111, 0.18176883, -0.63538307, -1.33527398, 0.44858193, 0.50242448, 0.00000000, 0.00000000, 0.00000000, 0.00000000
1, 0.8750, 313, 2.47778320, -0.11170726, -0.23081596, 57.28545761, -139.21742249, 640.00555420, 52.96696854, 15.20023346, -38.17597198, -136.56858826, 75.19970703, 59.67944717, -0.02776281, 0.75080615, 0.17042312, -0.63755423, -1.51096129, 0.28732622, 0.41632366, 0.00000000, 0.00000000, 0.00000000, 0.00000000
1, 0.8775, 314, 2.67453671, -0.01006981, -0.12127379, 47.54599762, -137.61349487, 624.74224854, 52.09003067, 8.79859638, -39.40368271, -140.17379761, 76.49506378, 55.83913040, -0.03618183, 0.75117022, 0.15942952, -0.63954407, -1.70218754, 0.15963684, 0.30062252, 0.00000000, 0.00000000, 0.00000000, 0.00000000
1, 0.8800, 315, 2.83611417, 0.07538503, -0.03500265, 40.22909927, -133.93052673, 606.42187500, 52.09003067, 8.79859638, -39.40368271, -144.41390991, 77.68840027, 51.38627243, -0.04444714, 0.75137132, 0.14880940, -0.64134336, -1.85911179, 0.04869821, 0.20840891, 0.00000000, 0.00000000, 0.00000000, 0.00000000
1, 0.8825, 316, 2.96292996, 0.15050921, 0.04885979, 34.62057877, -128.60270691, 585.81018066, 52.09003067, 8.79859638, -39.40368271, -149.37086487, 78.75867462, 46.23469543, -0.05248925, 0.75144285, 0.13858558, -0.64294058, -1.98211527, -0.05118994, 0.11888483, 0.00000000, 0.00000000, 0.00000000, 0.00000000
1, 0.8850, 317, 3.06780171, 0.20870890, 0.11405624, 29.48288155, -119.45555878, 564.82910156, 52.09003067, 8.79859638, -39.40368271, -155.13299561, 79.68156433, 40.29438782, -0.06028502, 0.75144905, 0.12876524, -0.64429009, -2.08397484, -0.13338682, 0.04845586, 0.00000000, 0.00000000, 0.00000000, 0.00000000
1, 0.8875, 318, 3.16385794, 0.27365360, 0.12572932, 25.97068787, -106.84206390, 544.58911133, 52.09003067, 8.79859638, -39.40368271, -161.73422241, 80.43168640, 33.52695465, -0.06780929, 0.75145608, 0.11932288, -0.64535099, -2.17776966, -0.22155470, 0.03211851, 0.00000000, 0.00000000, 0.00000000, 0.00000000
1, 0.8900, 319, 3.26168489, 0.37116417, 0.08706323, 24.02395630, -92.27734375, 524.51037598, 50.74539566, 4.47237635, -40.98217010, -169.08091736, 80.98646545, 26.02212524, -0.07503536, 0.75150692, 0.11024173, -0.64610666, -2.27403355, -0.34148753, 0.06676850, 0.00000000, 0.00000000, 0.00000000, 0.00000000
1, 0.8925, 320, 3.37617540, 0.46101761, 0.02172892, 20.48878860, -77.02184296, 503.60690308, 50.74539566, 4.47237635, -40.98217010, -176.91926575, 81.33181763, 18.03801918, -0.08197838, 0.75161952, 0.10156375, -0.64655435, -2.38759828, -0.45291787, 0.12876523, 0.00000000, 0.00000000, 0.00000000, 0.00000000
1, 0.8950, 321, 3.51590276, 0.56725693, -0.05513718, 14.14790916, -61.64196777, 481.94494629, 50.74539566, 4.47237635, -40.98217010, 175.12838745, 81.46745300, 9.95965672, -0.08867612, 0.75180101, 0.09334587, -0.64669818, -2.52697158, -0.57985741, 0.20297341, 0.00000000, 0.00000000, 0.00000000, 0.00000000
1, 0.8975, 322, 3.66764283, 0.69277418, -0.14370811, 5.86541891, -46.33516312, 459.37905884, 50.74539566, 4.47237635, -40.98217010, 167.48094177, 81.40821838, 2.21144438, -0.09515072, 0.75205588, 0.08563451, -0.64654851, -2.67886496, -0.72515774, 0.28955081, 0.00000000, 0.00000000, 0.00000000, 0.00000000
1, 0.9000, 323, 3.82157040, 0.81343210, -0.23565723, -3.40600014, -33.43252563, 434.96545410, 50.74539566, 4.47237635, -40.98217010, 160.48847961, 81.18809509, -4.85361338, -0.10139988, 0.75235587, 0.07847299, -0.64615858, -2.83337379, -0.86459768, 0.38005149, 0.00000000, 0.00000000, 0.00000000, 0.00000000
1, 0.9025, 324, 3.96218491, 0.90837300, -0.31306469, -12.01029396, -23.26368713, 408.62420654, 49.16690826, -1.08155513, -42.56065369, 154.34640503, 80.84904480, -11.04135895, -0.10739293, 0.75267082, 0.07188086, -0.64559013, -2.97491217, -0.97722489, 0.45642501, 0.00000000, 0.00000000, 0.00000000, 0.00000000
1, 0.9050, 325, 3.98605275, 0.98767650, -0.37495339, -18.65620613, -15.40992260, 380.91625977, 49.16690826, -1.08155513, -42.56065369, 149.09925842, 80.43138123, -16.31190109, -0.11308456, 0.75298136, 0.06585032, -0.64489907, -2.99996614, -1.07304430, 0.51758778, 0.00000000, 0.00000000, 0.00000000, 0.00000000
1, 0.9075, 326, 3.98571873, 1.04452002, -0.41281909, -22.76705360, -10.07247543, 351.76712036, 49.16690826, -1.08155513, -42.56065369, 144.69602966, 79.97185516, -20.72245789, -0.11841871, 0.75326651, 0.06036535, -0.64414483, -3.00099659, -1.14515364, 0.55492800, 0.00000000, 0.00000000, 0.00000000, 0.00000000
1, 0.9100, 327, 3.98548532, 1.08048046, -0.44318402, -24.99674034, -6.36279488, 321.54064941, 49.16690826, -1.08155513, -42.56065369, 141.04103088, 79.49909210, -24.37333107, -0.12335346, 0.75351745, 0.05541471, -0.64336985, -3.00223446, -1.19507432, 0.58490258, 0.00000000, 0.00000000, 0.00000000, 0.00000000
1, 0.9125, 328, 3.98533034, 1.10400748, -0.46371931, -27.14992714, -3.20634341, 291.30636597, 49.16690826, -1.08155513, -42.56065369, 138.02281189, 79.03230286, -27.37617683, -0.12788987, 0.75373620, 0.05099728, -0.64259267, -3.00359678, -1.23125720, 0.60515726, 0.00000000, 0.00000000, 0.00000000, 0.00000000
1, 0.9150, 329, 3.98527527, 1.10459507, -0.47910705, -29.94494820, -0.55158341, 261.76687622, 48.52382278, -3.62467122, -43.52528381, 135.53265381, 78.58510590, -29.83825111, -0.13205047, 0.75392365, 0.04711028, -0.64182752, -3.00505662, -1.24323392, 0.62034750, 0.00000000, 0.00000000, 0.00000000, 0.00000000
1, 0.9175, 330, 3.98528528, 1.08662498, -0.49490127, -33.66751862, 1.58012521, 234.11167908, 48.52382278, -3.62467122, -43.52528381, 133.46803284, 78.16480255, -31.86015892, -0.13587895, 0.75407934, 0.04373499, -0.64108390, -3.00654387, -1.23547637, 0.63599801, 0.00000000, 0.00000000, 0.00000000, 0.00000000
1, 0.9200, 331, 3.98526216, 1.07121217, -0.51762152, -38.68499374, 4.28004456, 209.19607544, 48.52382278, -3.62467122, -43.52528381, 131.74702454, 77.77260590, -33.52091217, -0.13943566, 0.75421607, 0.04084672, -0.64034951, -3.00794840, -1.22922933, 0.65864217, 0.00000000, 0.00000000, 0.00000000, 0.00000000
1, 0.9225, 332, 3.98511362, 1.06684852, -0.56522286, -45.14014435, 7.34680557, 186.52822876, 48.52382278, -3.62467122, -43.52528381, 130.30599976, 77.40871429, -34.88086319, -0.14277646, 0.75434095, 0.03843013, -0.63961536, -3.00916481, -1.23309195, 0.70623720, 0.00000000, 0.00000000, 0.00000000, 0.00000000
1, 0.9250, 333, 3.94445276, 1.06143272, -0.62118888, -53.81771469, 9.95205975, 165.47003174, 48.52382278, -3.62467122, -43.52528381, 129.08908081, 77.07451630, -35.99064255, -0.14596175, 0.75444549, 0.03648869, -0.63888639, -2.96979141, -1.23504901, 0.76222789, 0.00000000, 0.00000000, 0.00000000, 0.00000000
1, 0.9275, 334, 3.90622663, 1.04337704, -0.65205860, -64.92613983, 11.13325787, 145.44953918, 47.44226837, -5.11546326, -44.16837311, 128.04444885, 76.77286530, -36.89641953, -0.14904794, 0.75450510, 0.03503487, -0.63818443, -2.93275595, -1.22357452, 0.79306930, 0.00000000, 0.00000000, 0.00000000, 0.00000000
1, 0.9300, 335, 3.89797020, 1.01842856, -0.64668036, -76.59667206, 10.71991348, 125.19944763, 47.44226837, -5.11546326, -44.16837311, 127.13846588, 76.50901031, -37.63073349, -0.15204100, 0.75449532, 0.03407777, -0.63754135, -2.92556381, -1.20440507, 0.78752983, 0.00000000, 0.00000000, 0.00000000, 0.00000000
1, 0.9325, 336, 3.89343739, 0.98720866, -0.62270951, -86.60771179, 9.30871677, 103.32178497, 47.44226837, -5.11546326, -44.16837311, 126.36026764, 76.28810120, -38.20863342, -0.15489613, 0.75441110, 0.03361240, -0.63697827, -2.92193747, -1.17809868, 0.76324129, 0.00000000, 0.00000000, 0.00000000, 0.00000000
1, 0.9350, 337, 3.88187861, 0.96200132, -0.62612671, -94.96567535, 7.72502470, 80.17746735, 47.44226837, -5.11546326, -44.16837311, 125.70632935, 76.11464691, -38.63753128, -0.15756710, 0.75425351, 0.03363847, -0.63650823, -2.91110086, -1.15687013, 0.76618648, 0.00000000, 0.00000000, 0.00000000, 0.00000000
1, 0.9375, 338, 3.83704996, 0.93262905, -0.65006864, -102.95935822, 5.52484655, 56.81375504, 47.44226837, -5.11546326, -44.16837311, 125.16268921, 75.99092102, -38.93246078, -0.16004568, 0.75401562, 0.03415221, -0.63614434, -2.86679316, -1.13053167, 0.78948051, 0.00000000, 0.00000000, 0.00000000, 0.00000000
1, 0.9400, 339, 3.79830313, 0.90077651, -0.67051733, -111.61593628, 1.45784461, 10.83626842, 47.09149170, -5.96316862, -45.24992752, 124.83337402, 75.96662903, -38.98429108, -0.16203061, 0.75365192, 0.03552800, -0.63599747, -2.82814860, -1.09981441, 0.80902386, 0.00000000, 0.00000000, 0.00000000, 0.00000000
1, 0.9425, 340, 3.79830313, 0.90077651, -0.67051733, -111.61593628, 1.45784461, 10.83626842, 47.09149170, -5.96316862, -45.24992752, 124.50469208, 75.94229126, -39.03544235, -0.16401453, 0.75328368, 0.03690358, -0.63584679, -2.82825160, -1.10094535, 0.80811357, 0.00000000, 0.00000000, 0.00000000, 0.00000000
1, 0.9450, 341, 3.71939874, 0.77606153, -0.72688723, -130.33604431, -10.46939468, -30.10928917, 47.09149170, -5.96316862, -45.24992752, 124.26258850, 76.01916504, -38.94916153, -0.16574654, 0.75264454, 0.03916879, -0.63601893, -2.74902225, -0.97573382, 0.86290324, 0.00000000, 0.00000000, 0.00000000, 0.00000000
1, 0.9475, 342, 3.71939874, 0.77606153, -0.72688723, -130.33604431, -10.46939468, -30.10928917, 47.09149170, -5.96316862, -45.24992752, 124.01966858, 76.09616089, -38.86370468, -0.16747713, 0.75199914, 0.04143367, -0.63618565, -2.74869871, -0.97522807, 0.86132592, 0.00000000, 0.00000000, 0.00000000, 0.00000000
1, 0.9500, 343, 3.65254903, 0.72255558, -0.76398432, -131.56883240, -14.41987610, -61.49198914, 47.09149170, -5.96316862, -45.24992752, 123.91821289, 76.24382019, -38.62946701, -0.16879435, 0.75125879, 0.04421570, -0.63652474, -2.68123317, -0.91988349, 0.89667410, 0.00000000, 0.00000000, 0.00000000, 0.00000000
1, 0.9525, 344, 3.62784600, 0.72040826, -0.79390496, -130.42202759, -16.40063667, -75.79038239, 46.85764313, -6.51856184, -45.80532074, 123.88684845, 76.42394257, -38.32618332, -0.16989435, 0.75047350, 0.04720839, -0.63694334, -2.65578699, -0.91527253, 0.92478317, 0.00000000, 0.00000000, 0.00000000, 0.00000000
1, 0.9550, 345, 3.60321093, 0.73410648, -0.82284999, -129.34696960, -18.38316727, -90.01861572, 46.85764313, -6.51856184, -45.80532074, 123.92840576, 76.63633728, -37.95095062, -0.17077915, 0.74964148, 0.05041120, -0.63744092, -2.63028884, -0.92588460, 0.95185745, 0.00000000, 0.00000000, 0.00000000, 0.00000000
1, 0.9575, 346, 3.57736325, 0.74695253, -0.85278314, -129.12794495, -21.13756371, -104.11464691, 46.85764313, -6.51856184, -45.80532074, 124.03762817, 76.88169861, -37.50709534, -0.17146520, 0.74874693, 0.05383061, -0.63802832, -2.60346031, -0.93502986, 0.97982264, 0.00000000, 0.00000000, 0.00000000, 0.00000000
1, 0.9600, 347, 3.54611564, 0.75627923, -0.87041724, -130.40957642, -24.94682121, -118.08019257, 46.85764313, -6.51856184, -45.80532074, 124.20604706, 77.16109467, -36.99968338, -0.17197984, 0.74776751, 0.05748096, -0.63871962, -2.57111740, -0.94005287, 0.99533796, 0.00000000, 0.00000000, 0.00000000, 0.00000000
1, 0.9625, 348, 3.50895333, 0.76438522, -0.88194799, -133.63304138, -28.76322746, -132.73886108, 46.85764313, -6.51856184, -45.80532074, 124.43959045, 77.47568512, -36.41789246, -0.17234479, 0.74669236, 0.06140012, -0.63951379, -2.53274989, -0.94323009, 1.00458705, 0.00000000, 0.00000000, 0.00000000, 0.00000000
1, 0.9650, 349, 3.47096133, 0.76478028, -0.89616120, -137.43823242, -31.88383865, -147.94575500, 47.20841980, -6.05086231, -46.94533539, 124.75552368, 77.82541656, -35.74272919, -0.17256056, 0.74552518, 0.06560721, -0.64039898, -2.49345231, -0.93804741, 1.01638544, 0.00000000, 0.00000000, 0.00000000, 0.00000000
1, 0.9675, 350, 3.43080640, 0.75890905, -0.91132134, -141.18112183, -33.95532990, -163.76806641, 47.20841980, -6.05086231, -46.94533539, 125.18041992, 78.20957184, -34.94757080, -0.17261542, 0.74427640, 0.07011472, -0.64135838, -2.45190549, -0.92591912, 1.02904832, 0.00000000, 0.00000000, 0.00000000, 0.00000000
1, 0.9700, 351, 3.38567877, 0.74902797, -0.93142056, -144.36257935, -34.36193848, -179.42976379, 47.20841980, -6.05086231, -46.94533539, 125.74794006, 78.62479401, -33.99983978, -0.17249924, 0.74296790, 0.07491782, -0.64236295, -2.40532279, -0.90910214, 1.04664862, 0.00000000, 0.00000000, 0.00000000, 0.00000000
1, 0.9725, 352, 3.33981323, 0.73930818, -0.95444858, -147.05056763, -33.58792114, -195.00712585, 47.20841980, -6.05086231, -46.94533539, 126.49391937, 79.06809998, -32.86481094, -0.17220232, 0.74161428, 0.08001192, -0.64339155, -2.35795999, -0.89176559, 1.06723595, 0.00000000, 0.00000000, 0.00000000, 0.00000000
1, 0.9750, 353, 3.29761338, 0.71894509, -0.97996873, -149.38961792, -31.43676758, -209.86755371, 47.20841980, -6.05086231, -46.94533539, 127.45853424, 79.53456879, -31.50307274, -0.17172569, 0.74023366, 0.08538494, -0.64441752, -2.31424928, -0.86313248, 1.09044170, 0.00000000, 0.00000000, 0.00000000, 0.00000000
1, 0.9775, 354, 3.25208020, 0.69371682, -0.99297023, -151.15710449, -28.67468262, -223.60249329, 47.38380432, -5.32008171, -47.47150040, 128.67895508, 80.01889801, -29.87897682, -0.17107359, 0.73883474, 0.09101208, -0.64542544, -2.26721573, -0.82902426, 1.10129023, 0.00000000, 0.00000000, 0.00000000, 0.00000000
1, 0.9800, 355, 3.20421648, 0.66846025, -0.97883958, -152.77888489, -25.93102837, -236.07928467, 47.38380432, -5.32008171, -47.47150040, 130.19006348, 80.51670837, -27.95819092, -0.17025872, 0.73741293, 0.09687284, -0.64641309, -2.21788287, -0.79432249, 1.08516383, 0.00000000, 0.00000000, 0.00000000, 0.00000000
1, 0.9825, 356, 3.15304112, 0.63473415, -0.94943494, -153.75149536, -23.39453888, -248.21128845, 47.38380432, -5.32008171, -47.47150040, 132.04573059, 81.02274323, -25.68881035, -0.16927782, 0.73597229, 0.10294532, -0.64737332, -2.16529131, -0.75061381, 1.05394089, 0.00000000, 0.00000000, 0.00000000, 0.00000000
1, 0.9850, 357, 3.08661437, 0.59878999, -0.91600049, -154.51213074, -20.43841171, -260.47817993, 47.38380432, -5.32008171, -47.47150040, 134.32153320, 81.53262329, -22.99561882, -0.16812207, 0.73451185, 0.10923202, -0.64830214, -2.09751463, -0.70413458, 1.01887918, 0.00000000, 0.00000000, 0.00000000, 0.00000000
1, 0.9875, 358, 2.99082279, 0.57894498, -0.87443876, -155.12344360, -18.23486710, -273.24533081, 47.38380432, -5.32008171, -47.47150040, 137.10169983, 82.04246521, -19.79485512, -0.16678266, 0.73301655, 0.11573508, -0.64921165, -2.00045252, -0.67318088, 0.97585464, 0.00000000, 0.00000000, 0.00000000, 0.00000000
1, 0.9900, 359, 2.88182449, 0.55319780, -0.83709508, -156.81657410, -15.68751144, -286.49386597, 47.38380432, -5.32008171, -47.47150040, 140.50183105, 82.54404449, -15.96818733, -0.16526808, 0.73148173, 0.12247755, -0.65009242, -1.89027965, -0.63573551, 0.93722773, 0.00000000, 0.00000000, 0.00000000, 0.00000000
1, 0.9925, 360, 2.78593016, 0.50880408, -0.81558275, -160.10914612, -11.00637341, -299.84811401, 47.88073730, -4.82315111, -48.11458588, 144.67253113, 83.02165985, -11.36079884, -0.16359539, 0.72992706, 0.12949023, -0.65090346, -1.79333806, -0.57905823, 0.91470522, 0.00000000, 0.00000000, 0.00000000, 0.00000000
1, 0.9950, 361, 2.69930911, 0.46227705, -0.81391811, -164.13070679, -5.02521944, -312.62286377, 47.88073730, -4.82315111, -48.11458588, 149.74879456, 83.45599365, -5.83587122, -0.16177912, 0.72836518, 0.13677736, -0.65161628, -1.70582509, -0.51969302, 0.91236597, 0.00000000, 0.00000000, 0.00000000, 0.00000000
1, 0.9975, 362, 2.60337090, 0.44108906, -0.81624556, -168.30009460, 1.56674278, -324.68939209, 47.88073730, -4.82315111, -48.11458588, 155.82409668, 83.82428741, 0.70027602, -0.15982792, 0.72680140, 0.14433031, -0.65221435, -1.60917425, -0.48514676, 0.91438854, 0.00000000, 0.00000000, 0.00000000, 0.00000000
1, 1.0000, 363, 2.50898600, 0.41442654, -0.83075756, -172.76052856, 8.57144547, -336.74942017, 47.88073730, -4.82315111, -48.11458588, 162.91876221, 84.10142517, 8.26867771, -0.15774326, 0.72523582, 0.15215285, -0.65268642, -1.51428068, -0.44461247, 0.92899257, 0.00000000, 0.00000000, 0.00000000, 0.00000000
1, 1.0025, 364, 2.41412377, 0.37392196, -0.85757804, -178.57757568, 14.45668697, -348.89010620, 47.88073730, -4.82315111, -48.11458588, 170.89903259, 84.26423645, 16.73882675, -0.15554708, 0.72364253, 0.16025977, -0.65304166, -1.41913044, -0.38973030, 0.95626140, 0.00000000, 0.00000000, 0.00000000, 0.00000000
1, 1.0050, 365, 2.31820655, 0.32660183, -0.88095695, -186.17750549, 18.72389030, -360.48742676, 49.78076553, -2.25080395, -46.59456253, 179.44561768, 84.29352570, 25.79579353, -0.15327896, 0.72198880, 0.16866036, -0.65329283, -1.32316256, -0.32756406, 0.98038536, 0.00000000, 0.00000000, 0.00000000, 0.00000000
1, 1.0075, 366, 2.21955132, 0.26719230, -0.90231574, -194.98884583, 21.85759735, -371.18685913, 49.78076553, -2.25080395, -46.59456253, -171.89561462, 84.17755127, 34.98843765, -0.15097316, 0.72025222, 0.17735182, -0.65344489, -1.22471035, -0.25289053, 1.00274956, 0.00000000, 0.00000000, 0.00000000, 0.00000000
1, 1.0100, 367, 2.11975479, 0.20082596, -0.91033703, -204.35906982, 23.17367554, -381.13983154, 49.78076553, -2.25080395, -46.59456253, -163.58544922, 83.91778564, 43.85710907, -0.14865454, 0.71840274, 0.18632218, -0.65351623, -1.12538421, -0.17088450, 1.01197410, 0.00000000, 0.00000000, 0.00000000, 0.00000000
1, 1.0125, 368, 2.01105833, 0.13013600, -0.90252060, -214.07546997, 23.08406258, -389.99166870, 49.78076553, -2.25080395, -46.59456253, -155.97912598, 83.52573395, 52.04751587, -0.14634871, 0.71641850, 0.19555236, -0.65351814, -1.01743603, -0.08423582, 1.00551307, 0.00000000, 0.00000000, 0.00000000, 0.00000000
1, 1.0150, 369, 1.89059031, 0.06259557, -0.89524287, -224.00312805, 22.63087463, -397.86862183, 49.78076553, -2.25080395, -46.59456253, -149.26818848, 83.01708221, 59.36870193, -0.14407349, 0.71429294, 0.20502675, -0.65344656, -0.89800811, -0.00046882, 0.99974394, 0.00000000, 0.00000000, 0.00000000, 0.00000000
1, 1.0175, 370, 1.77228916, -0.00487388, -0.89224535, -234.14703369, 22.43504143, -404.62228394, 50.89155197, 0.49693072, -46.97456741, -143.50502014, 82.40950775, 65.76870728, -0.14184628, 0.71202981, 0.21472947, -0.65328735, -0.78105175, 0.08343644, 0.99843585, 0.00000000, 0.00000000, 0.00000000, 0.00000000
1, 1.0200, 371, 1.66591847, -0.06485507, -0.90186614, -244.44227600, 23.39183807, -409.89117432, 50.89155197, 0.49693072, -46.97456741, -138.65806580, 81.71947479, 71.27935028, -0.13968432, 0.70964801, 0.22464088, -0.65301186, -0.67634374, 0.15998799, 1.00999379, 0.00000000, 0.00000000, 0.00000000, 0.00000000
1, 1.0225, 372, 1.57573104, -0.12221508, -0.92626590, -254.38206482, 25.02569008, -413.96295166, 50.89155197, 0.49693072, -46.97456741, -134.63348389, 80.96289062, 75.99344635, -0.13759476, 0.70716071, 0.23473698, -0.65260243, -0.58814430, 0.23399171, 1.03662133, 0.00000000, 0.00000000, 0.00000000, 0.00000000
1, 1.0250, 373, 1.49509001, -0.17589663, -0.95551676, -264.32467651, 27.19476700, -416.83856201, 50.89155197, 0.49693072, -46.97456741, -131.32077026, 80.15366364, 80.02139282, -0.13559079, 0.70457876, 0.24499862, -0.65204263, -0.50982016, 0.30432692, 1.06842792, 0.00000000, 0.00000000, 0.00000000, 0.00000000
1, 1.0275, 374, 1.42561805, -0.23056503, -0.98089528, -274.41159058, 29.55813599, -418.94168091, 50.89155197, 0.49693072, -46.97456741, -128.60667419, 79.30311584, 83.47674561, -0.13368332, 0.70190614, 0.25541413, -0.65132183, -0.44299525, 0.37561232, 1.09671259, 0.00000000, 0.00000000, 0.00000000, 0.00000000
1, 1.0300, 375, 1.37075472, -0.29644424, -0.99987668, -284.42120361, 31.42322540, -420.14254761, 52.23618698, 2.95235300, -46.38994217, -126.37653351, 78.42514801, 86.47400665, -0.13190126, 0.69912249, 0.26594898, -0.65046221, -0.39109153, 0.45799354, 1.11887896, 0.00000000, 0.00000000, 0.00000000, 0.00000000
1, 1.0325, 376, 1.31307852, -0.37641871, -1.00550425, -294.06683350, 32.80152130, -421.00155640, 52.23618698, 2.95235300, -46.38994217, -124.55855560, 77.52019501, 89.08433533, -0.13021362, 0.69625515, 0.27662036, -0.64942628, -0.33670646, 0.55438405, 1.12808442, 0.00000000, 0.00000000, 0.00000000, 0.00000000
1, 1.0350, 377, 1.18249714, -0.48137483, -0.94672245, -302.76705933, 32.87302780, -421.88137817, 52.23618698, 2.95235300, -46.38994217, -123.05859375, 76.59794617, 91.39994049, -0.12862861, 0.69327009, 0.28739324, -0.64825648, -0.20972973, 0.67563522, 1.07315922, 0.00000000, 0.00000000, 0.00000000, 0.00000000
1, 1.0375, 378, 1.10047126, -0.77275491, -0.88600618, -309.37960815, 32.67937469, -422.28204346, 52.23618698, 2.95235300, -46.38994217, -121.81777954, 75.66305542, 93.47459412, -0.12712246, 0.69017112, 0.29822782, -0.64696509, -0.13161510, 0.98316836, 1.01655829, 0.00000000, 0.00000000, 0.00000000, 0.00000000
1, 1.0400, 379, 0.99366218, -0.91123229, -0.78782767, -312.02062988, 31.25992203, -417.25695801, 52.23618698, 2.95235300, -46.38994217, -120.79924774, 74.73114014, 95.33483887, -0.12571968, 0.68698770, 0.30898127, -0.64557970, -0.02896162, 1.13744080, 0.92267084, 0.00000000, 0.00000000, 0.00000000, 0.00000000
1, 1.0425, 380, 0.99366218, -0.91123229, -0.78782767, -312.02062988, 31.25992203, -417.25695801, 53.69775009, 6.08009338, -45.89301300, -119.94692993, 73.79161835, 97.03070831, -0.12430058, 0.68371511, 0.31969461, -0.64411050, -0.03340942, 1.15309727, 0.92716968, 0.00000000, 0.00000000, 0.00000000, 0.00000000
1, 1.0450, 381, 0.72540873, -1.09248197, -0.58744973, -297.51223755, 26.59671211, -402.82006836, 53.69775009, 6.08009338, -45.89301300, -119.22271729, 72.88297272, 98.56298065, -0.12288497, 0.68043178, 0.32993630, -0.64269269, 0.23029670, 1.34934759, 0.73114049, 0.00000000, 0.00000000, 0.00000000, 0.00000000
1, 1.0475, 382, 0.72540873, -1.09248197, -0.58744973, -297.51223755, 26.59671211, -402.82006836, 53.69775009, 6.08009338, -45.89301300, -118.61270905, 71.96931458, 99.98297882, -0.12145464, 0.67706704, 0.34013852, -0.64119792, 0.22548208, 1.36420834, 0.73567772, 0.00000000, 0.00000000, 0.00000000, 0.00000000
1, 1.0500, 383, 0.50106919, -1.19874918, -0.47570664, -282.27401733, 21.95456314, -380.48208618, 53.69775009, 6.08009338, -45.89301300, -118.10966492, 71.10620880, 101.25723267, -0.12013238, 0.67376673, 0.34974685, -0.63975286, 0.44505113, 1.48436987, 0.62827563, 0.00000000, 0.00000000, 0.00000000, 0.00000000
1, 1.0525, 384, 0.42538652, -1.23989987, -0.42498091, -274.96508789, 18.41662598, -366.98556519, 53.69775009, 6.08009338, -45.89301300, -117.68802643, 70.27380371, 102.43236542, -0.11890560, 0.67046934, 0.35900936, -0.63831395, 0.51592982, 1.53877664, 0.58181465, 0.00000000, 0.00000000, 0.00000000, 0.00000000
1, 1.0550, 385, 0.37276834, -1.27271950, -0.35608962, -267.00823975, 14.87484550, -352.86178589, 55.07161713, 8.27243519, -45.48377609, -117.33360291, 69.47420502, 103.52072906, -0.11777533, 0.66718894, 0.36791056, -0.63689077, 0.56374609, 1.58420086, 0.51708812, 0.00000000, 0.00000000, 0.00000000, 0.00000000
1, 1.0575, 386, 0.33535990, -1.29504156, -0.25969657, -257.61392212, 11.28494740, -339.23291016, 55.07161713, 8.27243519, -45.48377609, -117.02930450, 68.70691681, 104.53588867, -0.11671590, 0.66393226, 0.37644055, -0.63550293, 0.59637511, 1.61851728, 0.42472368, 0.00000000, 0.00000000, 0.00000000, 0.00000000
