SensorId, TimeStamp (s), FrameNumber, AccX (g), AccY (g), AccZ (g), GyroX (deg/s), GyroY (deg/s), GyroZ (deg/s), MagX (uT), MagY (uT), MagZ (uT), EulerX (deg), EulerY (deg), EulerZ (deg), QuatW, QuatX, QuatY, QuatZ, LinAccX (g), LinAccY (g), LinAccZ (g), Pressure (kPa), Altitude (m), Temperature (degC), HeaveMotion (m)
1, 0.0000, 0, 0.68439394, 0.65398514, -0.29827097, 0.39332792, -1.71693230, -0.07101162, 56.79625702, 27.30195808, -61.88248825, -66.12150574, 44.04951859, 145.89532471, 0.03224840, 0.44877267, 0.39131925, -0.80276555, 0.01088560, 0.00323433, 0.00732625, 0.00000000, 0.00000000, 0.00000000, 0.00000000
1, 0.0025, 1, 0.68235189, 0.65026563, -0.29673520, 0.17731950, -1.65190625, 0.07045636, 56.79625702, 27.30195808, -61.88248825, -66.08774567, 44.03090668, 145.91802979, 0.03231497, 0.44857469, 0.39124033, -0.80291194, 0.01269418, 0.00698870, 0.00531167, 0.00000000, 0.00000000, 0.00000000, 0.00000000
1, 0.0050, 2, 0.68030018, 0.65021956, -0.29416555, 0.10612112, -1.72291362, 0.13966632, 56.73779678, 27.53580856, -62.02864456, -66.08353424, 44.02947235, 145.92370605, 0.03229886, 0.44854560, 0.39123833, -0.80292982, 0.01472795, 0.00702924, 0.00268662, 0.00000000, 0.00000000, 0.00000000, 0.00000000
1, 0.0075, 3, 0.67486459, 0.65023714, -0.28853306, 0.24947676, -1.59078526, 0.63056999, 56.73779678, 27.53580856, -62.02864456, -66.07878113, 44.02930450, 145.92965698, 0.03227667, 0.44852296, 0.39122891, -0.80294794, 0.02016139, 0.00698936, -0.00300115, 0.00000000, 0.00000000, 0.00000000, 0.00000000
1, 0.0100, 4, 0.67402196, 0.65154177, -0.28545642, 0.60570037, -1.11155307, 1.19542480, 56.73779678, 27.53580856, -62.02864456, -66.07364655, 44.03090668, 145.93487549, 0.03225217, 0.44851327, 0.39120740, -0.80296481, 0.02102417, 0.00564081, -0.00612885, 0.00000000, 0.00000000, 0.00000000, 0.00000000
1, 0.0125, 5, 0.67523283, 0.65203732, -0.28532913, 1.03438246, -0.70088726, 1.75911295, 56.73779678, 27.53580856, -62.02864456, -66.06777954, 44.03421783, 145.93957520, 0.03222549, 0.44851530, 0.39117256, -0.80298173, 0.01985485, 0.00507867, -0.00630707, 0.00000000, 0.00000000, 0.00000000, 0.00000000
1, 0.0150, 6, 0.67995083, 0.65379405, -0.28628948, 1.24763262, -0.29443276, 2.46332836, 56.73779678, 27.53580856, -62.02864456, -66.06159973, 44.03954697, 145.94398499, 0.03219203, 0.44853029, 0.39112681, -0.80299699, 0.01520372, 0.00323141, -0.00539139, 0.00000000, 0.00000000, 0.00000000, 0.00000000
1, 0.0175, 7, 0.68491513, 0.65517265, -0.28652292, 1.31481302, 0.38762915, 3.17175865, 56.62086868, 28.14966393, -62.02864456, -66.05606079, 44.04718781, 145.94723511, 0.03215264, 0.44856322, 0.39107245, -0.80300665, 0.01033527, 0.00173986, -0.00518388, 0.00000000, 0.00000000, 0.00000000, 0.00000000
1, 0.0200, 8, 0.68950671, 0.65828252, -0.28758448, 1.24162769, 0.59027630, 3.45450616, 56.62086868, 28.14966393, -62.02864456, -66.05086517, 44.05568314, 145.95022583, 0.03210931, 0.44860217, 0.39101648, -0.80301386, 0.00585026, -0.00149059, -0.00413999, 0.00000000, 0.00000000, 0.00000000, 0.00000000
1, 0.0225, 9, 0.69423097, 0.66074020, -0.28596798, 1.16923189, 0.72148883, 3.87616253, 56.62086868, 28.14966393, -62.02864456, -66.04573822, 44.06528091, 145.95339966, 0.03205900, 0.44864708, 0.39095756, -0.80301946, 0.00124633, -0.00408077, -0.00576806, 0.00000000, 0.00000000, 0.00000000, 0.00000000
1, 0.0250, 10, 0.70028269, 0.66431892, -0.28494799, 1.16886818, 0.78852946, 4.01695299, 56.62086868, 28.14966393, -62.02864456, -66.04061890, 44.07525253, 145.95655823, 0.03200679, 0.44869438, 0.39089721, -0.80302453, -0.00468034, -0.00779635, -0.00679752, 0.00000000, 0.00000000, 0.00000000, 0.00000000
1, 0.0275, 11, 0.70124513, 0.66641295, -0.28491792, 1.24143314, 0.71886474, 4.08571100, 56.62086868, 28.14966393, -62.02864456, -66.03508759, 44.08531952, 145.96005249, 0.03195349, 0.44874096, 0.39083496, -0.80303091, -0.00551653, -0.01003021, -0.00684130, 0.00000000, 0.00000000, 0.00000000, 0.00000000
1, 0.0300, 12, 0.70290935, 0.67127854, -0.28936815, 1.38545322, 0.65426564, 3.87454438, 55.94855118, 28.03273773, -62.81789017, -66.02926636, 44.09483719, 145.96343994, 0.03190476, 0.44878453, 0.39077231, -0.80303901, -0.00706142, -0.01503104, -0.00241086, 0.00000000, 0.00000000, 0.00000000, 0.00000000
1, 0.0325, 13, 0.70506805, 0.67538124, -0.29187590, 1.24147713, 0.65511984, 3.73514605, 55.94855118, 28.03273773, -62.81789017, -66.02393341, 44.10403061, 145.96664429, 0.03185706, 0.44882697, 0.39071354, -0.80304581, -0.00910491, -0.01926303, 0.00008124, 0.00000000, 0.00000000, 0.00000000, 0.00000000
1, 0.0350, 14, 0.70979679, 0.67454988, -0.29238713, 1.24325109, 0.38366213, 3.38175917, 55.94855118, 28.03273773, -62.81789017, -66.01834106, 44.11214828, 145.97021484, 0.03181326, 0.44886160, 0.39065832, -0.80305487, -0.01373190, -0.01855010, 0.00056848, 0.00000000, 0.00000000, 0.00000000, 0.00000000
1, 0.0375, 15, 0.71273243, 0.66803527, -0.29151529, 1.17271721, 0.11592709, 2.74889827, 55.94855118, 28.03273773, -62.81789017, -66.01296234, 44.11854935, 145.97373962, 0.03177757, 0.44888631, 0.39061084, -0.80306578, -0.01658744, -0.01213396, -0.00033334, 0.00000000, 0.00000000, 0.00000000, 0.00000000
1, 0.0400, 16, 0.71418923, 0.66645813, -0.29251999, 1.53285241, -0.01479666, 2.46618795, 55.94855118, 28.03273773, -62.81789017, -66.00666046, 44.12415695, 145.97726440, 0.03174924, 0.44890592, 0.39055979, -0.80308056, -0.01797378, -0.01065117, 0.00062698, 0.00000000, 0.00000000, 0.00000000, 0.00000000
1, 0.0425, 17, 0.71101773, 0.67100674, -0.29354364, 1.89456713, -0.28838965, 2.46129584, 56.24086380, 28.29582024, -62.64250183, -65.99886322, 44.12949371, 145.98168945, 0.03172222, 0.44892058, 0.39050275, -0.80310136, -0.01473564, -0.01529878, 0.00158769, 0.00000000, 0.00000000, 0.00000000, 0.00000000
1, 0.0850, 18, 0.69106281, 0.66709250, -0.28415349, -1.34653485, -0.50547671, -3.26614118, 56.41625214, 27.38965225, -62.14557266, -65.92929840, 44.06181717, 146.03346252, 0.03197074, 0.44832090, 0.39046746, -0.80344343, 0.00437111, -0.01098913, -0.00893355, 0.00000000, 0.00000000, 0.00000000, 0.00000000
1, 0.0875, 19, 0.69008803, 0.66577590, -0.28698218, -1.84797597, -0.71788955, -3.26738262, 56.41625214, 27.38965225, -62.14557266, -65.93555450, 44.05363464, 146.03112793, 0.03200382, 0.44828182, 0.39053237, -0.80343252, 0.00524318, -0.00954974, -0.00607371, 0.00000000, 0.00000000, 0.00000000, 0.00000000
1, 0.0900, 20, 0.69338590, 0.66035879, -0.28536108, -2.56946230, -0.38061348, -3.12057090, 56.41625214, 27.38965225, -62.14557266, -65.94421387, 44.04612732, 146.02790833, 0.03203014, 0.44825029, 0.39060813, -0.80341208, 0.00185108, -0.00400513, -0.00763282, 0.00000000, 0.00000000, 0.00000000, 0.00000000
1, 0.0925, 21, 0.69668645, 0.65493125, -0.28300700, -2.78594017, -0.24744821, -2.90823746, 56.24086380, 27.82811928, -62.52557755, -65.95349884, 44.03921890, 146.02458191, 0.03205177, 0.44822314, 0.39068565, -0.80338883, -0.00153595, 0.00154626, -0.00991461, 0.00000000, 0.00000000, 0.00000000, 0.00000000
1, 0.0950, 22, 0.69705999, 0.65356010, -0.28156239, -2.49856472, -0.17991890, -2.62850070, 56.24086380, 27.82811928, -62.52557755, -65.96193695, 44.03304291, 146.02142334, 0.03207187, 0.44819933, 0.39075527, -0.80336744, -0.00198710, 0.00302911, -0.01129309, 0.00000000, 0.00000000, 0.00000000, 0.00000000
1, 0.0975, 23, 0.69913614, 0.65205306, -0.27865699, -1.70592415, -0.38244268, -2.49395752, 56.24086380, 27.82811928, -62.52557755, -65.96781158, 44.02695847, 146.01910400, 0.03209564, 0.44817257, 0.39080980, -0.80335486, -0.00413954, 0.00463355, -0.01416114, 0.00000000, 0.00000000, 0.00000000, 0.00000000
1, 0.1000, 24, 0.70060456, 0.64885378, -0.27797577, -0.98804843, -0.23944999, -2.35448456, 56.24086380, 27.82811928, -62.52557755, -65.97206879, 44.02133942, 146.01652527, 0.03212520, 0.44814897, 0.39085031, -0.80334711, -0.00567854, 0.00791687, -0.01482138, 0.00000000, 0.00000000, 0.00000000, 0.00000000
1, 0.1025, 25, 0.70009327, 0.65477377, -0.27947265, -0.19624145, -0.30679417, -2.00828528, 56.24086380, 27.82811928, -62.52557755, -66.00644684, 44.03469467, 145.99572754, 0.03206958, 0.44830930, 0.39096060, -0.80320615, -0.00499964, 0.00202429, -0.01286450, 0.00000000, 0.00000000, 0.00000000, 0.00000000
1, 0.1050, 26, 0.70018744, 0.65851897, -0.28344804, 0.52253062, -0.23633464, -1.65997910, 56.24086380, 27.82811928, -62.52557755, -66.00624847, 44.03066635, 145.99412537, 0.03210176, 0.44829065, 0.39096785, -0.80321175, -0.00514436, -0.00167722, -0.00891122, 0.00000000, 0.00000000, 0.00000000, 0.00000000
1, 0.1075, 27, 0.70223409, 0.65701067, -0.28909642, 1.09963322, -0.44197127, -1.45483363, 56.47471619, 28.12043190, -62.43788147, -66.00395203, 44.02689743, 145.99346924, 0.03213424, 0.44826972, 0.39096311, -0.80322444, -0.00723827, -0.00013882, -0.00330779, 0.00000000, 0.00000000, 0.00000000, 0.00000000
1, 0.1100, 28, 0.70610803, 0.65523201, -0.29243091, 1.31732750, -0.65096509, -1.24855888, 56.47471619, 28.12043190, -62.43788147, -66.00044250, 44.02338791, 145.99377441, 0.03216345, 0.44824675, 0.39095268, -0.80324119, -0.01115626, 0.00166094, -0.00003091, 0.00000000, 0.00000000, 0.00000000, 0.00000000
1, 0.1125, 29, 0.70949054, 0.65456766, -0.29648051, 1.31948364, -0.86307192, -0.97168165, 56.47471619, 28.12043190, -62.43788147, -65.99620056, 44.02028656, 145.99513245, 0.03218602, 0.44822243, 0.39093965, -0.80326021, -0.01457769, 0.00233781, 0.00395483, 0.00000000, 0.00000000, 0.00000000, 0.00000000
1, 0.1150, 30, 0.71081054, 0.65874755, -0.29605263, 1.17903006, -1.21499670, -0.69623435, 56.47471619, 28.12043190, -62.43788147, -65.99125671, 44.01746750, 145.99800110, 0.03219939, 0.44819438, 0.39092666, -0.80328166, -0.01593310, -0.00183594, 0.00345629, 0.00000000, 0.00000000, 0.00000000, 0.00000000
1, 0.1175, 31, 0.71466941, 0.66647953, -0.29386479, 1.25227797, -1.35499728, -0.55849195, 56.47471619, 28.12043190, -62.43788147, -65.98567963, 44.01480865, 146.00152588, 0.03220986, 0.44816497, 0.39091113, -0.80330521, -0.01982534, -0.00956702, 0.00119144, 0.00000000, 0.00000000, 0.00000000, 0.00000000
1, 0.1200, 32, 0.71597499, 0.67544252, -0.29263049, 1.61132252, -1.28459954, -0.41883078, 55.86085892, 27.85735130, -62.35018921, -65.97922516, 44.01255035, 146.00502014, 0.03222200, 0.44813776, 0.39088789, -0.80333120, -0.02115929, -0.01853794, -0.00012800, 0.00000000, 0.00000000, 0.00000000, 0.00000000
1, 0.1225, 33, 0.71838588, 0.67950636, -0.29232883, 1.75465941, -1.27886260, -0.69898188, 55.86085892, 27.85735130, -62.35018921, -65.97270966, 44.00965118, 146.00808716, 0.03224050, 0.44810817, 0.39086485, -0.80335820, -0.02360654, -0.02260298, -0.00051871, 0.00000000, 0.00000000, 0.00000000, 0.00000000
1, 0.1250, 34, 0.71900398, 0.67861235, -0.28977761, 1.89930046, -1.47644424, -1.26165462, 55.86085892, 27.85735130, -62.35018921, -65.96594238, 44.00526810, 146.01098633, 0.03226858, 0.44807020, 0.39084494, -0.80338794, -0.02427966, -0.02169502, -0.00316915, 0.00000000, 0.00000000, 0.00000000, 0.00000000
1, 0.1275, 35, 0.71721727, 0.67181259, -0.28767851, 1.97216618, -1.67579567, -1.75417662, 55.86085892, 27.85735130, -62.35018921, -65.95904541, 43.99955750, 146.01382446, 0.03230432, 0.44802445, 0.39082870, -0.80341989, -0.02256465, -0.01486725, -0.00537556, 0.00000000, 0.00000000, 0.00000000, 0.00000000
1, 0.1300, 36, 0.71240574, 0.66352201, -0.28547385, 2.11665654, -1.80853379, -2.03620887, 55.86085892, 27.85735130, -62.35018921, -65.95176697, 43.99305725, 146.01667786, 0.03234528, 0.44797388, 0.39081278, -0.80345416, -0.01783472, -0.00654203, -0.00769567, 0.00000000, 0.00000000, 0.00000000, 0.00000000
1, 0.1325, 37, 0.70734143, 0.65660489, -0.28483617, 2.11445642, -1.53268218, -1.96252131, 56.09470749, 28.03273773, -62.52557755, -65.94503784, 43.98702240, 146.01876831, 0.03238727, 0.44792882, 0.39079598, -0.80348581, -0.01284624, 0.00040752, -0.00844047, 0.00000000, 0.00000000, 0.00000000, 0.00000000
1, 0.1350, 38, 0.70237261, 0.65270072, -0.28855169, 2.11131597, -1.12055242, -1.74710238, 56.09470749, 28.03273773, -62.52557755, -65.93900299, 43.98188782, 146.01985168, 0.03242897, 0.44789279, 0.39077681, -0.80351353, -0.00794184, 0.00433755, -0.00481945, 0.00000000, 0.00000000, 0.00000000, 0.00000000
1, 0.1375, 39, 0.69933718, 0.65101099, -0.29174846, 2.03755379, -0.84866774, -1.46341419, 56.09470749, 28.03273773, -62.52557755, -65.93347931, 43.97768402, 146.02046204, 0.03246730, 0.44786400, 0.39075598, -0.80353814, -0.00495923, 0.00604552, -0.00170684, 0.00000000, 0.00000000, 0.00000000, 0.00000000
1, 0.1400, 40, 0.69798738, 0.65313071, -0.29427940, 1.81829858, -0.37041324, -1.17645180, 56.09470749, 28.03273773, -62.52557755, -65.92927551, 43.97462463, 146.01997375, 0.03250253, 0.44784617, 0.39073586, -0.80355644, -0.00364786, 0.00393814, 0.00076079, 0.00000000, 0.00000000, 0.00000000, 0.00000000
1, 0.1425, 41, 0.69493973, 0.65706360, -0.29519054, 1.45784366, -0.23639390, -1.10351634, 56.09470749, 28.03273773, -62.52557755, -65.92619324, 43.97186279, 146.01916504, 0.03253411, 0.44783157, 0.39072123, -0.80357039, -0.00063491, 0.00002003, 0.00162292, 0.00000000, 0.00000000, 0.00000000, 0.00000000
1, 0.1450, 42, 0.69456476, 0.65989405, -0.29551303, 0.95283586, -0.03228287, -1.16903794, 56.38702011, 28.61736298, -62.81789017, -65.92488098, 43.96916199, 146.01760864, 0.03256363, 0.44782037, 0.39071596, -0.80357802, -0.00029385, -0.00278729, 0.00191706, 0.00000000, 0.00000000, 0.00000000, 0.00000000
1, 0.1475, 43, 0.69275343, 0.65888840, -0.29454711, 0.37678039, 0.03597714, -1.44598997, 56.38702011, 28.61736298, -62.81789017, -65.92543793, 43.96589661, 146.01545715, 0.03259297, 0.44780838, 0.39072344, -0.80357987, 0.00147647, -0.00174266, 0.00094137, 0.00000000, 0.00000000, 0.00000000, 0.00000000
1, 0.1500, 44, 0.69168198, 0.65371585, -0.29425752, -0.20111182, 0.31304833, -1.79004419, 56.38702011, 28.61736298, -62.81789017, -65.92839050, 43.96212769, 146.01193237, 0.03262506, 0.44779876, 0.39074421, -0.80357385, 0.00250059, 0.00348663, 0.00066704, 0.00000000, 0.00000000, 0.00000000, 0.00000000
1, 0.1525, 45, 0.68781275, 0.64844918, -0.29689637, -0.41906327, 0.58798420, -1.78560376, 56.38702011, 28.61736298, -62.81789017, -65.91551208, 43.95882034, 146.01707458, 0.03265589, 0.44775772, 0.39068624, -0.80362362, 0.00632823, 0.00872409, 0.00314176, 0.00000000, 0.00000000, 0.00000000, 0.00000000
1, 0.1550, 46, 0.68489397, 0.64290160, -0.30540696, -0.41942686, 0.65502471, -1.64481342, 56.38702011, 28.61736298, -62.81789017, -65.91961670, 43.95572662, 146.01266479, 0.03268622, 0.44775549, 0.39070919, -0.80361247, 0.00920820, 0.01432687, 0.01168421, 0.00000000, 0.00000000, 0.00000000, 0.00000000
1, 0.1575, 47, 0.68292403, 0.64628750, -0.31072778, -0.27639085, 0.79044873, -1.36368418, 57.14703369, 27.94504547, -62.84711838, -65.92339325, 43.95341873, 146.00822449, 0.03271417, 0.44775793, 0.39072680, -0.80360144, 0.01114911, 0.01098573, 0.01703691, 0.00000000, 0.00000000, 0.00000000, 0.00000000
1, 0.1600, 48, 0.68292403, 0.64628750, -0.31072778, -0.27639085, 0.79044873, -1.36368418, 57.14703369, 27.94504547, -62.84711838, -65.92716980, 43.95111847, 146.00378418, 0.03274211, 0.44776037, 0.39074442, -0.80359042, 0.01112014, 0.01103055, 0.01706877, 0.00000000, 0.00000000, 0.00000000, 0.00000000
1, 0.1625, 49, 0.68384421, 0.65412569, -0.31696391, -0.34647989, 0.64471102, -0.94579071, 57.14703369, 27.94504547, -62.84711838, -65.93037415, 43.94961166, 146.00041199, 0.03276080, 0.44776383, 0.39075929, -0.80358046, 0.01018107, 0.00322551, 0.02333436, 0.00000000, 0.00000000, 0.00000000, 0.00000000
1, 0.1650, 50, 0.68384421, 0.65412569, -0.31696391, -0.34647989, 0.64471102, -0.94579071, 57.14703369, 27.94504547, -62.84711838, -65.93359375, 43.94810486, 145.99702454, 0.03277949, 0.44776729, 0.39077416, -0.80357051, 0.01016217, 0.00325859, 0.02336389, 0.00000000, 0.00000000, 0.00000000, 0.00000000
1, 0.1675, 51, 0.68684906, 0.66042215, -0.31785128, -0.77556938, 0.36483049, -1.01812351, 57.14703369, 27.94504547, -62.84711838, -65.93733978, 43.94615555, 145.99441528, 0.03279287, 0.44776559, 0.39079744, -0.80355960, 0.00713283, -0.00299704, 0.02428451, 0.00000000, 0.00000000, 0.00000000, 0.00000000
1, 0.1700, 52, 0.68490952, 0.66101903, -0.31722715, -0.98965323, 0.09355558, -1.51068282, 56.27009583, 26.80502701, -62.32095718, -65.94150543, 43.94280624, 145.99198914, 0.03281049, 0.44775507, 0.39082947, -0.80354917, 0.00903022, -0.00353557, 0.02369166, 0.00000000, 0.00000000, 0.00000000, 0.00000000
1, 0.1725, 53, 0.68734026, 0.66233712, -0.31403482, -0.98834944, -0.10976303, -1.79320443, 56.27009583, 26.80502701, -62.32095718, -65.94549561, 43.93860245, 145.98979187, 0.03283133, 0.44773856, 0.39086437, -0.80354053, 0.00654668, -0.00478679, 0.02052435, 0.00000000, 0.00000000, 0.00000000, 0.00000000
1, 0.1750, 54, 0.68759722, 0.66203684, -0.31012964, -1.12886572, -0.52433425, -1.93824697, 56.27009583, 26.80502701, -62.32095718, -65.94905853, 43.93364716, 145.98872375, 0.03284981, 0.44771364, 0.39090347, -0.80353463, 0.00622743, -0.00441331, 0.01663563, 0.00000000, 0.00000000, 0.00000000, 0.00000000
1, 0.1775, 55, 0.68760908, 0.66319990, -0.30546835, -1.05499709, -0.79731745, -2.15201044, 56.27009583, 26.80502701, -62.32095718, -65.95205688, 43.92791367, 145.98820496, 0.03287043, 0.44768205, 0.39094356, -0.80353189, 0.00614351, -0.00549775, 0.01198050, 0.00000000, 0.00000000, 0.00000000, 0.00000000
1, 0.1800, 56, 0.68894118, 0.66527128, -0.30372861, -1.27059782, -0.86307687, -2.50189805, 56.27009583, 26.80502701, -62.32095718, -65.95579529, 43.92132187, 145.98739624, 0.03289452, 0.44764650, 0.39099088, -0.80352771, 0.00472856, -0.00747710, 0.01025108, 0.00000000, 0.00000000, 0.00000000, 0.00000000
1, 0.1825, 57, 0.68810636, 0.66303062, -0.30205041, -1.48619866, -0.92883611, -2.85178494, 56.38702011, 27.91581345, -62.11634064, -65.96025848, 43.91386795, 145.98631287, 0.03292208, 0.44760698, 0.39104545, -0.80352205, 0.00546968, -0.00513113, 0.00858745, 0.00000000, 0.00000000, 0.00000000, 0.00000000
1, 0.1850, 58, 0.68641585, 0.66202724, -0.30120695, -1.91859782, -0.85813481, -3.19911361, 56.38702011, 27.91581345, -62.11634064, -65.96630859, 43.90568542, 145.98451233, 0.03295210, 0.44756600, 0.39111096, -0.80351174, 0.00705731, -0.00400633, 0.00777310, 0.00000000, 0.00000000, 0.00000000, 0.00000000
1, 0.1875, 59, 0.68644595, 0.65766460, -0.29699689, -2.49538040, -0.65579367, -3.19448471, 56.38702011, 27.91581345, -62.11634064, -65.97423553, 43.89772797, 145.98208618, 0.03297814, 0.44752902, 0.39118636, -0.80349457, 0.00692707, 0.00048494, 0.00361481, 0.00000000, 0.00000000, 0.00000000, 0.00000000
1, 0.1900, 60, 0.68598777, 0.65404069, -0.29301894, -2.63972068, -0.58789897, -3.19309211, 56.38702011, 27.91581345, -62.11634064, -65.98266602, 43.88983917, 145.97943115, 0.03300332, 0.44749337, 0.39126423, -0.80347550, 0.00728607, 0.00423926, -0.00030515, 0.00000000, 0.00000000, 0.00000000, 0.00000000
1, 0.1925, 61, 0.68564737, 0.65091592, -0.28952235, -2.35151100, -0.65554923, -3.12501144, 56.38702011, 27.91581345, -62.11634064, -65.99015808, 43.88202286, 145.97709656, 0.03302955, 0.44745690, 0.39133644, -0.80345958, 0.00752836, 0.00748867, -0.00375396, 0.00000000, 0.00000000, 0.00000000, 0.00000000
1, 0.1950, 62, 0.68322039, 0.65176320, -0.28938219, -1.92357469, -0.23719372, -3.05079699, 56.65010071, 27.41888237, -62.37942123, -65.99743652, 43.87482452, 145.97354126, 0.03306222, 0.44742808, 0.39140010, -0.80344325, 0.00986457, 0.00675815, -0.00384602, 0.00000000, 0.00000000, 0.00000000, 0.00000000
1, 0.1975, 63, 0.68055499, 0.65004915, -0.29074714, -1.49264860, -0.16612445, -2.91136193, 56.65010071, 27.41888237, -62.37942123, -66.00365448, 43.86800766, 145.96995544, 0.03309726, 0.44740137, 0.39145482, -0.80343002, 0.01244420, 0.00857943, -0.00244322, 0.00000000, 0.00000000, 0.00000000, 0.00000000
1, 0.2000, 64, 0.68092769, 0.64759088, -0.29066336, -0.91554612, -0.37176111, -2.70621610, 56.65010071, 27.41888237, -62.37942123, -66.00776672, 43.86145020, 145.96733093, 0.03313258, 0.44737241, 0.39149752, -0.80342388, 0.01198900, 0.01113117, -0.00251192, 0.00000000, 0.00000000, 0.00000000, 0.00000000
1, 0.2025, 65, 0.68152809, 0.65185738, -0.28791091, -0.62958074, -0.09981463, -2.21388268, 56.65010071, 27.41888237, -62.37942123, -66.01598358, 43.85234833, 145.96206665, 0.03318296, 0.44733837, 0.39156812, -0.80340624, 0.01127404, 0.00700724, -0.00521463, 0.00000000, 0.00000000, 0.00000000, 0.00000000
1, 0.2050, 66, 0.68199342, 0.65630001, -0.28894362, -0.20111182, 0.31304833, -1.79004419, 56.65010071, 27.41888237, -62.37942123, -66.01891327, 43.84857178, 145.95855713, 0.03321505, 0.44732878, 0.39158896, -0.80340028, 0.01076126, 0.00262129, -0.00416666, 0.00000000, 0.00000000, 0.00000000, 0.00000000
1, 0.2075, 67, 0.68305945, 0.65955639, -0.29280627, -0.13363047, 0.86542332, -1.64289451, 56.73779678, 27.41888237, -62.37942123, -66.02275848, 43.84570312, 145.95350647, 0.03324994, 0.44732994, 0.39160666, -0.80338937, 0.00965899, -0.00058377, -0.00027394, 0.00000000, 0.00000000, 0.00000000, 0.00000000
1, 0.2100, 68, 0.68461639, 0.66073072, -0.29706839, -0.13258369, 0.72804666, -1.71470094, 56.73779678, 27.41888237, -62.37942123, -66.02635956, 43.84253311, 145.94877625, 0.03328492, 0.44732818, 0.39162526, -0.80338001, 0.00806219, -0.00170445, 0.00401396, 0.00000000, 0.00000000, 0.00000000, 0.00000000
1, 0.2125, 69, 0.68229747, 0.66029948, -0.30208033, -0.63528478, 0.65520740, -1.78398538, 56.73779678, 27.41888237, -62.37942123, -66.03112793, 43.83911133, 145.94418335, 0.03331559, 0.44732487, 0.39165333, -0.80336690, 0.01033801, -0.00121117, 0.00906396, 0.00000000, 0.00000000, 0.00000000, 0.00000000
1, 0.2150, 70, 0.68023306, 0.65909380, -0.30441633, -1.34995747, 0.16273141, -1.71838748, 56.73779678, 27.41888237, -62.37942123, -66.03652954, 43.83535004, 145.94126892, 0.03333392, 0.44731396, 0.39169359, -0.80335242, 0.01235509, 0.00006366, 0.01144370, 0.00000000, 0.00000000, 0.00000000, 0.00000000
1, 0.2175, 71, 0.67938840, 0.65931660, -0.30306703, -1.99631536, 0.08745077, -1.71729565, 56.73779678, 27.41888237, -62.37942123, -66.04338837, 43.83151627, 145.93855286, 0.03334528, 0.44730228, 0.39174527, -0.80333328, 0.01315147, -0.00008178, 0.01015446, 0.00000000, 0.00000000, 0.00000000, 0.00000000
1, 0.2200, 72, 0.67902982, 0.65905166, -0.30184838, -2.06499386, -0.26270407, -1.51199889, 56.44548416, 28.06196976, -62.67173386, -66.04944611, 43.82779694, 145.93727112, 0.03334938, 0.44728625, 0.39179641, -0.80331707, 0.01346320, 0.00025529, 0.00898725, 0.00000000, 0.00000000, 0.00000000, 0.00000000
1, 0.2225, 73, 0.68025070, 0.65684152, -0.30164030, -2.13597918, -0.33590865, -1.30293930, 56.44548416, 28.06196976, -62.67173386, -66.05532074, 43.82447433, 145.93650818, 0.03334851, 0.44727081, 0.39184687, -0.80330127, 0.01220053, 0.00253218, 0.00883043, 0.00000000, 0.00000000, 0.00000000, 0.00000000
1, 0.2250, 74, 0.67963952, 0.65601128, -0.30397353, -1.99074316, -0.47633642, -1.09549797, 56.44548416, 28.06196976, -62.67173386, -66.06031799, 43.82148743, 145.93646240, 0.03334421, 0.44725451, 0.39189273, -0.80328798, 0.01277411, 0.00342089, 0.01120657, 0.00000000, 0.00000000, 0.00000000, 0.00000000
1, 0.2275, 75, 0.67804909, 0.65800178, -0.30613935, -1.98743367, -0.82691824, -0.82050222, 56.44548416, 28.06196976, -62.67173386, -66.06427765, 43.81877899, 145.93792725, 0.03333212, 0.44723454, 0.39193624, -0.80327857, 0.01433051, 0.00148058, 0.01340464, 0.00000000, 0.00000000, 0.00000000, 0.00000000
1, 0.2300, 76, 0.67610234, 0.65850699, -0.30771619, -2.19929862, -1.24765360, -0.61569464, 56.44548416, 28.06196976, -62.67173386, -66.06764221, 43.81611252, 145.94100952, 0.03331078, 0.44720894, 0.39198163, -0.80327135, 0.01624346, 0.00102198, 0.01500711, 0.00000000, 0.00000000, 0.00000000, 0.00000000
1, 0.2325, 77, 0.67283672, 0.65773511, -0.30637714, -2.48409200, -1.53168368, -0.33885494, 56.76702499, 27.88658333, -62.08710861, -66.07082367, 43.81377792, 145.94538879, 0.03327939, 0.44718108, 0.39202964, -0.80326492, 0.01947987, 0.00183588, 0.01369330, 0.00000000, 0.00000000, 0.00000000, 0.00000000
1, 0.2350, 78, 0.67332464, 0.65796763, -0.30527478, -2.84318066, -1.53833663, -0.12795113, 56.76702499, 27.88658333, -62.08710861, -66.07468414, 43.81193161, 145.95008850, 0.03324074, 0.44715506, 0.39208183, -0.80325550, 0.01896865, 0.00164360, 0.01262626, 0.00000000, 0.00000000, 0.00000000, 0.00000000
1, 0.2375, 79, 0.67151278, 0.65720606, -0.30418298, -3.34477258, -1.68590605, 0.15144768, 56.76702499, 27.88658333, -62.08710861, -66.07920074, 43.81056976, 145.95562744, 0.03319103, 0.44712922, 0.39214018, -0.80324346, 0.02076322, 0.00244319, 0.01157984, 0.00000000, 0.00000000, 0.00000000, 0.00000000
1, 0.2400, 80, 0.67247593, 0.66147763, -0.30167559, -3.70307064, -1.76399338, 0.50126040, 56.76702499, 27.88658333, -62.08710861, -66.08410645, 43.80992889, 145.96192932, 0.03313103, 0.44710529, 0.39220145, -0.80322933, 0.01979208, -0.00179613, 0.00912571, 0.00000000, 0.00000000, 0.00000000, 0.00000000
1, 0.2425, 81, 0.67368096, 0.66732734, -0.29767820, -4.20696926, -1.63461256, 0.78442216, 56.76702499, 27.88658333, -62.08710861, -66.09027100, 43.81005478, 145.96820068, 0.03306226, 0.44708639, 0.39226872, -0.80320984, 0.01858884, -0.00761580, 0.00520009, 0.00000000, 0.00000000, 0.00000000, 0.00000000
1, 0.2450, 82, 0.67661238, 0.66652364, -0.29207546, -4.49344921, -1.77467489, 0.71351933, 56.44548416, 28.58813095, -61.56094742, -66.09692383, 43.80989456, 145.97482300, 0.03299074, 0.44706461, 0.39234170, -0.80318910, 0.01565516, -0.00677651, -0.00032693, 0.00000000, 0.00000000, 0.00000000, 0.00000000
1, 0.2475, 83, 0.67808801, 0.66450644, -0.28807682, -4.56669712, -1.63467419, 0.57577688, 56.44548416, 28.58813095, -61.56094742, -66.10419464, 43.80955124, 145.98081970, 0.03292212, 0.44704422, 0.39241734, -0.80316651, 0.01417530, -0.00471836, -0.00424352, 0.00000000, 0.00000000, 0.00000000, 0.00000000
1, 0.2500, 84, 0.67750728, 0.66185659, -0.28347269, -4.49654531, -1.42629004, 0.57837325, 56.44548416, 28.58813095, -61.56094742, -66.11175537, 43.80943298, 145.98612976, 0.03285591, 0.44702733, 0.39249146, -0.80314219, 0.01475441, -0.00202864, -0.00876126, 0.00000000, 0.00000000, 0.00000000, 0.00000000
1, 0.2525, 85, 0.67362934, 0.65832102, -0.28681821, -3.92311597, -1.21430433, 0.64931357, 56.44548416, 28.58813095, -61.56094742, -66.12357330, 43.79980850, 145.98837280, 0.03284246, 0.44696569, 0.39261851, -0.80311507, 0.01851124, 0.00167352, -0.00532663, 0.00000000, 0.00000000, 0.00000000, 0.00000000
1, 0.2550, 86, 0.66830409, 0.65535498, -0.28746369, -3.27596855, -1.21045828, 0.78713059, 56.44548416, 28.58813095, -61.56094742, -66.12834930, 43.80038452, 145.99330139, 0.03278636, 0.44695356, 0.39266911, -0.80309939, 0.02384377, 0.00465757, -0.00462332, 0.00000000, 0.00000000, 0.00000000, 0.00000000
1, 0.2575, 87, 0.66774082, 0.64597100, -0.28479564, -3.06192899, -0.87543827, 1.63025510, 56.67933273, 27.00964546, -61.94095230, -66.13249969, 43.80322266, 145.99838257, 0.03272044, 0.44695437, 0.39270750, -0.80308288, 0.02444280, 0.01403135, -0.00722966, 0.00000000, 0.00000000, 0.00000000, 0.00000000
1, 0.2600, 88, 0.66774082, 0.64597100, -0.28479564, -3.06192899, -0.87543827, 1.63025510, 56.67933273, 27.00964546, -61.94095230, -66.13665771, 43.80606842, 146.00343323, 0.03265452, 0.44695517, 0.39274588, -0.80306637, 0.02447862, 0.01402122, -0.00716797, 0.00000000, 0.00000000, 0.00000000, 0.00000000
1, 0.2625, 89, 0.67074770, 0.65456104, -0.28271517, -1.99577725, 0.84140515, 3.18873286, 56.67933273, 27.00964546, -61.94095230, -66.14038849, 43.81420517, 146.00523376, 0.03258640, 0.44699869, 0.39274916, -0.80304337, 0.02157426, 0.00536019, -0.00916556, 0.00000000, 0.00000000, 0.00000000, 0.00000000
1, 0.2650, 90, 0.67074770, 0.65456104, -0.28271517, -1.99577725, 0.84140515, 3.18873286, 56.67933273, 27.00964546, -61.94095230, -66.14413452, 43.82234955, 146.00703430, 0.03251828, 0.44704214, 0.39275235, -0.80302018, 0.02167678, 0.00528914, -0.00908265, 0.00000000, 0.00000000, 0.00000000, 0.00000000
1, 0.2675, 91, 0.67770684, 0.67390460, -0.28341085, -1.35715461, 2.00910735, 4.18164062, 56.67933273, 27.00964546, -61.94095230, -66.14788055, 43.83393860, 146.00653076, 0.03244900, 0.44711417, 0.39273399, -0.80299205, 0.01486361, -0.01416338, -0.00828719, 0.00000000, 0.00000000, 0.00000000, 0.00000000
1, 0.2700, 92, 0.68483496, 0.67706281, -0.28704304, -1.43307281, 2.49309850, 4.18845177, 56.67933273, 27.00964546, -61.76556396, -66.15287018, 43.84604263, 146.00450134, 0.03238300, 0.44719470, 0.39271641, -0.80295831, 0.00788778, -0.01742995, -0.00453842, 0.00000000, 0.00000000, 0.00000000, 0.00000000
1, 0.2725, 93, 0.69052029, 0.67641097, -0.29121935, -1.79290712, 2.49413538, 3.90988183, 57.00087738, 28.23735809, -61.76556396, -66.15903473, 43.85750580, 146.00205994, 0.03231838, 0.44727316, 0.39270791, -0.80292135, 0.00234675, -0.01687348, -0.00023508, 0.00000000, 0.00000000, 0.00000000, 0.00000000
1, 0.2750, 94, 0.69585735, 0.67387730, -0.29285765, -2.29676127, 2.55977178, 3.84247851, 57.00087738, 28.23735809, -61.76556396, -66.16667938, 43.86887741, 145.99932861, 0.03225059, 0.44735256, 0.39270884, -0.80287939, -0.00284720, -0.01442683, 0.00154674, 0.00000000, 0.00000000, 0.00000000, 0.00000000
1, 0.2775, 95, 0.69791335, 0.67220956, -0.29594234, -2.43911409, 2.35401130, 3.63033366, 57.00087738, 28.23735809, -61.76556396, -66.17442322, 43.87955856, 145.99694824, 0.03218337, 0.44742665, 0.39271450, -0.80283809, -0.00476885, -0.01283789, 0.00477287, 0.00000000, 0.00000000, 0.00000000, 0.00000000
1, 0.2800, 96, 0.69936389, 0.66908330, -0.30039227, -2.29441071, 2.21907616, 3.48815060, 57.00087738, 28.23735809, -61.76556396, -66.18165588, 43.88977432, 145.99478149, 0.03211889, 0.44749701, 0.39271906, -0.80279922, -0.00609082, -0.00978798, 0.00935584, 0.00000000, 0.00000000, 0.00000000, 0.00000000
1, 0.2825, 97, 0.70215893, 0.66422153, -0.30340517, -1.78856945, 1.87978578, 3.34201622, 57.00087738, 28.23735809, -61.76556396, -66.18701935, 43.89932251, 145.99349976, 0.03205900, 0.44755983, 0.39271644, -0.80276787, -0.00876582, -0.00500458, 0.01247713, 0.00000000, 0.00000000, 0.00000000, 0.00000000
1, 0.2850, 98, 0.70264357, 0.66168082, -0.30613339, -1.20900977, 1.33235538, 3.26275873, 56.59164047, 27.68196487, -62.46711349, -66.18981171, 43.90812683, 145.99383545, 0.03200147, 0.44761196, 0.39270481, -0.80274677, -0.00913972, -0.00254726, 0.01528046, 0.00000000, 0.00000000, 0.00000000, 0.00000000
1, 0.2875, 99, 0.70324618, 0.66157639, -0.30723602, -0.55850899, 0.92187482, 3.32500625, 56.59164047, 27.68196487, -62.46711349, -66.19000244, 43.91666412, 145.99557495, 0.03194568, 0.44765699, 0.39268148, -0.80273533, -0.00963503, -0.00253648, 0.01642704, 0.00000000, 0.00000000, 0.00000000, 0.00000000
1, 0.2900, 100, 0.70321465, 0.66848892, -0.30920747, 0.02147685, 0.37005037, 3.52544808, 56.59164047, 27.68196487, -62.46711349, -66.18733215, 43.92509460, 145.99934387, 0.03188731, 0.44769362, 0.39264640, -0.80273438, -0.00949746, -0.00955594, 0.01840901, 0.00000000, 0.00000000, 0.00000000, 0.00000000
1, 0.2925, 101, 0.70065475, 0.67326015, -0.30839601, 0.38376820, 0.02721983, 3.51961493, 56.59164047, 27.68196487, -62.46711349, -66.18300629, 43.93317032, 146.00419617, 0.03182966, 0.44772398, 0.39260527, -0.80273986, -0.00683606, -0.01443857, 0.01758728, 0.00000000, 0.00000000, 0.00000000, 0.00000000
1, 0.2950, 102, 0.70101106, 0.67462426, -0.30910903, 0.16964029, -0.18031017, 3.37762094, 56.59164047, 27.68196487, -62.46711349, -66.17889404, 43.94072342, 146.00949097, 0.03177061, 0.44774964, 0.39256942, -0.80274540, -0.00709748, -0.01590711, 0.01828995, 0.00000000, 0.00000000, 0.00000000, 0.00000000
1, 0.2975, 103, 0.70355105, 0.67453748, -0.31082633, 0.02938106, -0.66082335, 3.02186298, 56.91318130, 27.97427559, -62.02864456, -66.17442322, 43.94696426, 146.01583862, 0.03171232, 0.44776392, 0.39253986, -0.80275422, -0.00955904, -0.01591218, 0.01998639, 0.00000000, 0.00000000, 0.00000000, 0.00000000
1, 0.3000, 104, 0.70416063, 0.67379940, -0.31059447, -0.18370003, -1.00573003, 2.80806208, 56.91318130, 27.97427559, -62.02864456, -66.16992950, 43.95236969, 146.02297974, 0.03165273, 0.44777048, 0.39251634, -0.80276442, -0.01010072, -0.01525682, 0.01972938, 0.00000000, 0.00000000, 0.00000000, 0.00000000
1, 0.3025, 105, 0.70282239, 0.67587221, -0.30982682, -0.18239620, -1.20904875, 2.52554059, 56.91318130, 27.97427559, -62.02864456, -66.14797211, 43.94470596, 146.04042053, 0.03165480, 0.44765890, 0.39245889, -0.80285460, -0.00885874, -0.01735622, 0.01867175, 0.00000000, 0.00000000, 0.00000000, 0.00000000
1, 0.3050, 106, 0.69968069, 0.67460591, -0.30825120, -0.32543224, -1.34447265, 2.24441123, 56.91318130, 27.97427559, -62.02864456, -66.14363098, 43.94847870, 146.04783630, 0.03160080, 0.44765481, 0.39244360, -0.80286652, -0.00566965, -0.01615382, 0.01706478, 0.00000000, 0.00000000, 0.00000000, 0.00000000
1, 0.3075, 107, 0.70211452, 0.67264020, -0.30755308, -0.68248975, -1.68852520, 1.89121246, 56.91318130, 27.97427559, -62.02864456, -66.13977051, 43.95109558, 146.05586243, 0.03154655, 0.44764191, 0.39243823, -0.80287850, -0.00807059, -0.01423669, 0.01633510, 0.00000000, 0.00000000, 0.00000000, 0.00000000
1, 0.3100, 108, 0.70103908, 0.67027020, -0.30550981, -1.32963705, -1.69237125, 1.75339532, 56.67933273, 27.50657654, -61.76556396, -66.13764954, 43.95339584, 146.06370544, 0.03148836, 0.44762820, 0.39244553, -0.80288488, -0.00696624, -0.01190299, 0.01427871, 0.00000000, 0.00000000, 0.00000000, 0.00000000
1, 0.3125, 109, 0.70176965, 0.67231971, -0.30242500, -1.39963806, -1.96559870, 1.47015905, 56.67933273, 27.50657654, -61.76556396, -66.13537598, 43.95476532, 146.07202148, 0.03143211, 0.44760731, 0.39245707, -0.80289310, -0.00767964, -0.01397926, 0.01117459, 0.00000000, 0.00000000, 0.00000000, 0.00000000
1, 0.3150, 110, 0.70068723, 0.67361283, -0.29861486, -1.47346282, -1.75636053, 1.33335733, 56.67933273, 27.50657654, -61.76556396, -66.13389587, 43.95603943, 146.07946777, 0.03137932, 0.44758898, 0.39247108, -0.80289853, -0.00658119, -0.01529396, 0.00735361, 0.00000000, 0.00000000, 0.00000000, 0.00000000
1, 0.3175, 111, 0.69959748, 0.67481422, -0.29700568, -1.54703033, -1.61306417, 0.98584044, 56.67933273, 27.50657654, -61.76556396, -66.13324738, 43.95666122, 146.08596802, 0.03133313, 0.44757023, 0.39248964, -0.80290169, -0.00548363, -0.01650554, 0.00574005, 0.00000000, 0.00000000, 0.00000000, 0.00000000
1, 0.3200, 112, 0.69778615, 0.67356622, -0.29628789, -1.47557497, -1.60799873, 0.70591527, 56.67933273, 27.50657654, -61.76556396, -66.13270569, 43.95665359, 146.09207153, 0.03129259, 0.44754913, 0.39250970, -0.80290526, -0.00367248, -0.01526022, 0.00501597, 0.00000000, 0.00000000, 0.00000000, 0.00000000
1, 0.3225, 113, 0.69657815, 0.67475498, -0.29382327, -1.98137271, -1.33245313, 0.50148457, 56.97164536, 27.65273285, -61.47325134, -66.13423920, 43.95644379, 146.09700012, 0.03125305, 0.44753143, 0.39254043, -0.80290163, -0.00246698, -0.01643891, 0.00256795, 0.00000000, 0.00000000, 0.00000000, 0.00000000
1, 0.3250, 114, 0.69574684, 0.67250037, -0.29116774, -2.27178216, -0.98895103, 0.50709170, 56.97164536, 27.65273285, -61.47325134, -66.13724518, 43.95660782, 146.10086060, 0.03121352, 0.44752002, 0.39257592, -0.80289215, -0.00163364, -0.01417083, -0.00005230, 0.00000000, 0.00000000, 0.00000000, 0.00000000
1, 0.3275, 115, 0.69563770, 0.67027014, -0.28997970, -2.41785216, -0.71334374, 0.51130641, 56.97164536, 27.65273285, -61.47325134, -66.14121246, 43.95705795, 146.10383606, 0.03117484, 0.44751355, 0.39261377, -0.80287874, -0.00151885, -0.01192540, -0.00119251, 0.00000000, 0.00000000, 0.00000000, 0.00000000
1, 0.3300, 116, 0.69696647, 0.66859895, -0.29306293, -2.41968870, -0.50453252, 0.44420376, 56.97164536, 27.65273285, -61.47325134, -66.14572144, 43.95756149, 146.10606384, 0.03113912, 0.44751015, 0.39265215, -0.80286324, -0.00284129, -0.01023686, 0.00194496, 0.00000000, 0.00000000, 0.00000000, 0.00000000
1, 0.3325, 117, 0.69732934, 0.66775590, -0.29417634, -2.42084217, -0.36605746, 0.44608524, 56.97164536, 27.65273285, -61.47325134, -66.15052795, 43.95820999, 146.10784912, 0.03110453, 0.44750920, 0.39269045, -0.80284637, -0.00319600, -0.00937659, 0.00311679, 0.00000000, 0.00000000, 0.00000000, 0.00000000
1, 0.3350, 118, 0.69527984, 0.66539884, -0.29335284, -2.63774705, -0.22849813, 0.37871945, 57.32241821, 27.44811440, -61.73633194, -66.15624237, 43.95884705, 146.10910034, 0.03107019, 0.44751024, 0.39273310, -0.80282629, -0.00113851, -0.00699759, 0.00236216, 0.00000000, 0.00000000, 0.00000000, 0.00000000
1, 0.3375, 119, 0.69201618, 0.66243899, -0.29375806, -2.85281491, -0.29975012, 0.37845626, 57.32241821, 27.44811440, -61.73633194, -66.16235352, 43.95941162, 146.11059570, 0.03103314, 0.44751018, 0.39277959, -0.80280501, 0.00213224, -0.00401294, 0.00284031, 0.00000000, 0.00000000, 0.00000000, 0.00000000
1, 0.3400, 120, 0.69019479, 0.66389674, -0.29312104, -2.99956775, 0.04619335, 0.31368685, 57.32241821, 27.44811440, -61.73633194, -66.16964722, 43.96017456, 146.11088562, 0.03099875, 0.44751570, 0.39282903, -0.80277908, 0.00396323, -0.00544214, 0.00229085, 0.00000000, 0.00000000, 0.00000000, 0.00000000
1, 0.3425, 121, 0.68775845, 0.66502470, -0.29542056, -3.00140429, 0.25500455, 0.24658424, 57.32241821, 27.44811440, -61.73633194, -66.17747498, 43.96099472, 146.11041260, 0.03096732, 0.44752431, 0.39287901, -0.80275100, 0.00640989, -0.00653941, 0.00468433, 0.00000000, 0.00000000, 0.00000000, 0.00000000
1, 0.3450, 122, 0.68750060, 0.66593426, -0.29894981, -2.85670114, 0.12006935, 0.10440136, 57.32241821, 27.44811440, -61.73633194, -66.18478394, 43.96136093, 146.11018372, 0.03093862, 0.44752926, 0.39292794, -0.80272543, 0.00667232, -0.00741589, 0.00829935, 0.00000000, 0.00000000, 0.00000000, 0.00000000
1, 0.3475, 123, 0.69116002, 0.66113341, -0.29732004, -2.71451735, 0.26428148, -0.17386824, 57.29319000, 28.26658821, -62.29172516, -66.19232178, 43.96122360, 146.10910034, 0.03091743, 0.44753420, 0.39297700, -0.80269945, 0.00301117, -0.00257546, 0.00675559, 0.00000000, 0.00000000, 0.00000000, 0.00000000
1, 0.3500, 124, 0.69166511, 0.65753996, -0.29517654, -2.28275728, 0.20017117, -0.24608889, 57.29319000, 28.26658821, -62.29172516, -66.19869995, 43.96086502, 146.10812378, 0.03090117, 0.44753715, 0.39301923, -0.80267775, 0.00250155, 0.00105441, 0.00468370, 0.00000000, 0.00000000, 0.00000000, 0.00000000
1, 0.3525, 125, 0.69212008, 0.65802741, -0.30335724, -1.63608027, 0.27215627, -0.03740622, 57.29319000, 28.26658821, -62.29172516, -66.15969086, 43.94873428, 146.13169861, 0.03094926, 0.44737336, 0.39288262, -0.80283397, 0.00189412, 0.00050336, 0.01235664, 0.00000000, 0.00000000, 0.00000000, 0.00000000
1, 0.3550, 126, 0.69197041, 0.66274601, -0.30670622, -0.84390980, 0.13777158, 0.16800252, 57.29319000, 28.26658821, -62.29172516, -66.16194153, 43.94925308, 146.13150024, 0.03093926, 0.44737783, 0.39289573, -0.80282563, 0.00205046, -0.00420952, 0.01573402, 0.00000000, 0.00000000, 0.00000000, 0.00000000
1, 0.3575, 127, 0.69160169, 0.66215926, -0.30879179, -0.48230159, -0.13472286, 0.09318543, 57.29319000, 28.26658821, -62.29172516, -66.16275787, 43.94933701, 146.13204956, 0.03093176, 0.44737655, 0.39290330, -0.80282277, 0.00242007, -0.00361955, 0.01782939, 0.00000000, 0.00000000, 0.00000000, 0.00000000
1, 0.3600, 128, 0.69160169, 0.66215926, -0.30879179, -0.48230159, -0.13472286, 0.09318543, 57.00087738, 27.88658333, -62.26249695, -66.16357422, 43.94941711, 146.13261414, 0.03092427, 0.44737533, 0.39291093, -0.80282003, 0.00242114, -0.00361621, 0.01783913, 0.00000000, 0.00000000, 0.00000000, 0.00000000
1, 0.3625, 129, 0.69233209, 0.65972710, -0.31041911, -0.83280259, -1.24258566, -0.13051184, 57.00087738, 27.88658333, -62.26249695, -66.16304779, 43.94786453, 146.13636780, 0.03090778, 0.44735301, 0.39292762, -0.80282491, 0.00167114, -0.00116950, 0.01945278, 0.00000000, 0.00000000, 0.00000000, 0.00000000
1, 0.3650, 130, 0.69233209, 0.65972710, -0.31041911, -0.83280259, -1.24258566, -0.13051184, 57.00087738, 27.88658333, -62.26249695, -66.16251373, 43.94630432, 146.14013672, 0.03089128, 0.44733074, 0.39294437, -0.80282992, 0.00165171, -0.00115502, 0.01943904, 0.00000000, 0.00000000, 0.00000000, 0.00000000
1, 0.3675, 131, 0.69131511, 0.66488171, -0.31876972, -0.46668762, -2.06788206, -0.28277975, 57.00087738, 27.88658333, -62.26249695, -66.15940094, 43.94356918, 146.14630127, 0.03087395, 0.44729239, 0.39295661, -0.80284578, 0.00263423, -0.00629520, 0.02774054, 0.00000000, 0.00000000, 0.00000000, 0.00000000
1, 0.3700, 132, 0.69591093, 0.66664129, -0.31997415, -0.31679419, -2.82595539, -0.43342939, 57.00087738, 27.88658333, -62.26249695, -66.15438843, 43.93971634, 146.15467834, 0.03085423, 0.44723943, 0.39296836, -0.80287045, -0.00200993, -0.00803763, 0.02886853, 0.00000000, 0.00000000, 0.00000000, 0.00000000
1, 0.3725, 133, 0.69651270, 0.66860026, -0.31921223, -0.31181726, -3.44689631, -0.58174574, 56.62086868, 28.44197655, -61.88248825, -66.14813995, 43.93491364, 146.16479492, 0.03083182, 0.44717422, 0.39298174, -0.80290091, -0.00267208, -0.00997490, 0.02801114, 0.00000000, 0.00000000, 0.00000000, 0.00000000
1, 0.3750, 134, 0.69759440, 0.67336762, -0.31694192, -0.45128673, -3.99884415, -0.79859459, 56.62086868, 28.44197655, -61.88248825, -66.14123535, 43.92904282, 146.17639160, 0.03080713, 0.44709769, 0.39300019, -0.80293566, -0.00382757, -0.01471246, 0.02563272, 0.00000000, 0.00000000, 0.00000000, 0.00000000
1, 0.3775, 135, 0.69565445, 0.67457193, -0.31581974, -0.44731262, -4.54615307, -1.22566962, 56.62086868, 28.44197655, -61.88248825, -66.13353729, 43.92163467, 146.18910217, 0.03078525, 0.44700778, 0.39302298, -0.80297524, -0.00198078, -0.01587397, 0.02438575, 0.00000000, 0.00000000, 0.00000000, 0.00000000
1, 0.3800, 136, 0.69529986, 0.67344332, -0.31436992, -0.51600999, -5.02269983, -1.79142797, 56.62086868, 28.44197655, -61.88248825, -66.12551880, 43.91246796, 146.20251465, 0.03076854, 0.44690481, 0.39305285, -0.80301857, -0.00174141, -0.01468456, 0.02279884, 0.00000000, 0.00000000, 0.00000000, 0.00000000
1, 0.3825, 137, 0.69156677, 0.66787398, -0.31298113, -0.65522242, -5.64058924, -2.21899199, 56.62086868, 28.44197655, -61.88248825, -66.11690521, 43.90167999, 146.21730042, 0.03075265, 0.44678742, 0.39308974, -0.80306643, 0.00185603, -0.00903988, 0.02125826, 0.00000000, 0.00000000, 0.00000000, 0.00000000
1, 0.3850, 138, 0.68759942, 0.66130114, -0.31026310, -0.72396362, -6.05339050, -2.43418479, 56.35778809, 28.17889404, -62.64250183, -66.10777283, 43.88999557, 146.23307800, 0.03073633, 0.44666097, 0.39313021, -0.80311757, 0.00567639, -0.00238413, 0.01837790, 0.00000000, 0.00000000, 0.00000000, 0.00000000
1, 0.3875, 139, 0.68158191, 0.65697753, -0.30212972, -0.86505646, -6.39872456, -2.57828712, 56.35778809, 28.17889404, -62.64250183, -66.09838104, 43.87761307, 146.24974060, 0.03071820, 0.44652736, 0.39317486, -0.80317092, 0.01153827, 0.00202858, 0.01007581, 0.00000000, 0.00000000, 0.00000000, 0.00000000
1, 0.3900, 140, 0.67859429, 0.65521449, -0.29151943, -1.08048820, -6.40293598, -2.43775940, 56.35778809, 28.17889404, -62.64250183, -66.08938599, 43.86556244, 146.26663208, 0.03069546, 0.44639489, 0.39322177, -0.80322230, 0.01437414, 0.00387907, -0.00069705, 0.00000000, 0.00000000, 0.00000000, 0.00000000
1, 0.3925, 141, 0.67511350, 0.65760207, -0.27901161, -1.08211160, -6.19632196, -2.36501241, 56.35778809, 28.17889404, -62.64250183, -66.08078766, 43.85387802, 146.28292847, 0.03067321, 0.44626674, 0.39326790, -0.80327177, 0.01770788, 0.00157684, -0.01336116, 0.00000000, 0.00000000, 0.00000000, 0.00000000
1, 0.3950, 142, 0.67186618, 0.66002721, -0.26906982, -0.72443372, -5.98525190, -2.36331940, 56.35778809, 28.17889404, -62.64250183, -66.07174683, 43.84240341, 146.29858398, 0.03065622, 0.44614205, 0.39330760, -0.80332226, 0.02081078, -0.00076771, -0.02346304, 0.00000000, 0.00000000, 0.00000000, 0.00000000
1, 0.3975, 143, 0.66849506, 0.66209871, -0.26023301, -0.37010914, -5.35985518, -2.28605723, 56.65010071, 28.85121346, -62.14557266, -66.06314850, 43.83175659, 146.31234741, 0.03064669, 0.44602874, 0.39333993, -0.80336970, 0.02404785, -0.00276524, -0.03245115, 0.00000000, 0.00000000, 0.00000000, 0.00000000
1, 0.4000, 144, 0.66766793, 0.66091734, -0.25523934, 0.19939004, -4.66430473, -2.13860655, 56.65010071, 28.85121346, -62.14557266, -66.05451202, 43.82213211, 146.32411194, 0.03064609, 0.44592851, 0.39336038, -0.80341536, 0.02475381, -0.00152189, -0.03759143, 0.00000000, 0.00000000, 0.00000000, 0.00000000
1, 0.4025, 145, 0.66743845, 0.65783483, -0.25467506, 0.76773596, -3.83027935, -1.98927486, 56.65010071, 28.85121346, -62.14557266, -66.08244324, 43.80897903, 146.31455994, 0.03067031, 0.44589013, 0.39356726, -0.80333441, 0.02481765, 0.00184864, -0.03789857, 0.00000000, 0.00000000, 0.00000000, 0.00000000
1, 0.4050, 146, 0.66720724, 0.65536505, -0.25397921, 1.33928478, -3.34573770, -1.63487220, 56.65010071, 28.85121346, -62.14557266, -66.07334900, 43.80185318, 146.32286072, 0.03068327, 0.44581655, 0.39356193, -0.80337739, 0.02495909, 0.00435066, -0.03873409, 0.00000000, 0.00000000, 0.00000000, 0.00000000
1, 0.4075, 147, 0.66781205, 0.65634245, -0.25335449, 1.69345891, -2.65549707, -1.27696979, 56.65010071, 28.85121346, -62.14557266, -66.06453705, 43.79624176, 146.32948303, 0.03069932, 0.44575790, 0.39354643, -0.80341691, 0.02428359, 0.00339013, -0.03948775, 0.00000000, 0.00000000, 0.00000000, 0.00000000
1, 0.4100, 148, 0.66770148, 0.65641963, -0.25017595, 1.97585773, -1.96702659, -0.84891647, 56.79625702, 28.73428726, -62.02864456, -66.05610657, 43.79229736, 146.33450317, 0.03071652, 0.44571480, 0.39352137, -0.80345243, 0.02434451, 0.00331330, -0.04278261, 0.00000000, 0.00000000, 0.00000000, 0.00000000
1, 0.4125, 149, 0.66953224, 0.65371192, -0.24936579, 2.47462893, -1.41062307, -0.70312184, 56.79625702, 28.73428726, -62.02864456, -66.04751587, 43.78926086, 146.33798218, 0.03074080, 0.44568235, 0.39348578, -0.80348694, 0.02247542, 0.00601065, -0.04370661, 0.00000000, 0.00000000, 0.00000000, 0.00000000
1, 0.4475, 150, 0.67949688, 0.63146967, -0.19498223, 10.68120384, -1.96487403, 4.15834522, 56.82548904, 28.67582512, -62.20403290, -65.73846436, 43.82983017, 146.41760254, 0.03118092, 0.44556922, 0.39147851, -0.80451244, 0.01302189, 0.02621567, -0.10144299, 0.00000000, 0.00000000, 0.00000000, 0.00000000
1, 0.4500, 151, 0.68353581, 0.63254201, -0.18263215, 11.25080967, -1.27042258, 4.37572002, 56.76702499, 28.29582024, -61.64863968, -65.70324707, 43.83850861, 146.42785645, 0.03120264, 0.44557670, 0.39123943, -0.80462396, 0.00909203, 0.02486545, -0.11415422, 0.00000000, 0.00000000, 0.00000000, 0.00000000
1, 0.4525, 152, 0.69464105, 0.63047361, -0.16325717, 11.74658966, -0.36673254, 4.45629358, 56.76702499, 28.29582024, -61.64863968, -65.71671295, 43.86585617, 146.40887451, 0.03114686, 0.44580922, 0.39116013, -0.80453569, -0.00166905, 0.02670211, -0.13323857, 0.00000000, 0.00000000, 0.00000000, 0.00000000
1, 0.4550, 153, 0.70380104, 0.61582017, -0.15861236, 12.09792423, 0.60595065, 4.46833515, 56.76702499, 28.29582024, -61.64863968, -65.68338013, 43.87665939, 146.41334534, 0.03119127, 0.44584981, 0.39090398, -0.80463618, -0.01069296, 0.04106391, -0.13821189, 0.00000000, 0.00000000, 0.00000000, 0.00000000
1, 0.4575, 154, 0.70380104, 0.61582017, -0.15861236, 12.09792423, 0.60595065, 4.46833515, 56.76702499, 28.29582024, -61.64863968, -65.65003967, 43.88746262, 146.41780090, 0.03123567, 0.44589028, 0.39064768, -0.80473638, -0.01055706, 0.04077196, -0.13854022, 0.00000000, 0.00000000, 0.00000000, 0.00000000
1, 0.4600, 155, 0.71449429, 0.62109381, -0.14560059, 15.17443466, 2.49215341, 5.25319719, 56.76702499, 28.29582024, -61.64863968, -65.61235046, 43.90200043, 146.41744995, 0.03131230, 0.44596845, 0.39032847, -0.80484504, -0.02106762, 0.03514248, -0.15191117, 0.00000000, 0.00000000, 0.00000000, 0.00000000
1, 0.4625, 156, 0.71449429, 0.62109381, -0.14560059, 15.17443466, 2.49215341, 5.25319719, 56.67933273, 27.94504547, -61.94095230, -65.57465363, 43.91653061, 146.41711426, 0.03138892, 0.44604650, 0.39000916, -0.80495346, -0.02088482, 0.03478653, -0.15227014, 0.00000000, 0.00000000, 0.00000000, 0.00000000
1, 0.4650, 157, 0.72743964, 0.61627954, -0.12272768, 15.59513187, 3.74465561, 5.12892580, 56.67933273, 27.94504547, -61.94095230, -65.53876495, 43.93206406, 146.41264343, 0.03148247, 0.44614518, 0.38968277, -0.80505317, -0.03363484, 0.03924263, -0.17547588, 0.00000000, 0.00000000, 0.00000000, 0.00000000
1, 0.4675, 158, 0.73820585, 0.60756707, -0.10308712, 15.44942570, 3.95322204, 4.99235058, 56.67933273, 27.94504547, -61.94095230, -65.50381470, 43.94752884, 146.40733337, 0.03157877, 0.44624645, 0.38936010, -0.80514950, -0.04420675, 0.04760291, -0.19543868, 0.00000000, 0.00000000, 0.00000000, 0.00000000
1, 0.4700, 159, 0.74606347, 0.60356331, -0.07835843, 16.16362953, 4.51383734, 4.99761772, 56.67933273, 27.94504547, -61.94095230, -65.46830750, 43.96357346, 146.40028381, 0.03168669, 0.44635701, 0.38902441, -0.80524629, -0.05186279, 0.05124469, -0.22049260, 0.00000000, 0.00000000, 0.00000000, 0.00000000
1, 0.4725, 160, 0.75110149, 0.60779190, -0.05423111, 17.88301849, 5.22232819, 5.00160503, 56.67933273, 27.94504547, -61.94095230, -65.43004608, 43.98037338, 146.39099121, 0.03181729, 0.44647875, 0.38865787, -0.80535054, -0.05668974, 0.04663128, -0.24497250, 0.00000000, 0.00000000, 0.00000000, 0.00000000
1, 0.4750, 161, 0.75768125, 0.61846614, -0.03330761, 20.10411072, 6.07728910, 4.79611778, 56.62086868, 28.35428238, -61.82402802, -65.38830566, 43.99759674, 146.37872314, 0.03198037, 0.44661221, 0.38825366, -0.80546504, -0.06305324, 0.03554899, -0.26628569, 0.00000000, 0.00000000, 0.00000000, 0.00000000
1, 0.4775, 162, 0.76089251, 0.62163061, -0.01273657, 22.11190605, 6.58954144, 4.23698139, 56.62086868, 28.35428238, -61.82402802, -65.34321594, 44.01409149, 146.36404419, 0.03217718, 0.44674838, 0.38781914, -0.80559099, -0.06605744, 0.03196681, -0.28728783, 0.00000000, 0.00000000, 0.00000000, 0.00000000
1, 0.4800, 163, 0.76463389, 0.61758673, 0.01346631, 23.33167267, 6.75041628, 3.53577447, 56.62086868, 28.35428238, -61.82402802, -65.29614258, 44.02917099, 146.34785461, 0.03239955, 0.44688049, 0.38736984, -0.80572498, -0.06960958, 0.03559780, -0.31395122, 0.00000000, 0.00000000, 0.00000000, 0.00000000
1, 0.4825, 164, 0.76552945, 0.60333788, 0.04746163, 24.62494659, 6.70534849, 2.76159549, 56.62086868, 28.35428238, -61.82402802, -65.24652100, 44.04244995, 146.33068848, 0.03264775, 0.44700423, 0.38690528, -0.80586952, -0.07033849, 0.04943985, -0.34844473, 0.00000000, 0.00000000, 0.00000000, 0.00000000
1, 0.4850, 165, 0.76911914, 0.58632439, 0.08654139, 26.34857178, 6.80058813, 2.12779212, 56.62086868, 28.35428238, -61.82402802, -65.19342041, 44.05440903, 146.31231689, 0.03292470, 0.44712293, 0.38641638, -0.80602700, -0.07377817, 0.06604244, -0.38806850, 0.00000000, 0.00000000, 0.00000000, 0.00000000
1, 0.4875, 166, 0.77551490, 0.56828165, 0.12975435, 29.07876778, 7.02942181, 2.40173173, 56.91318130, 28.41274452, -62.37942123, -65.13371277, 44.06723785, 146.29362488, 0.03322537, 0.44724578, 0.38587645, -0.80620509, -0.08001304, 0.08362931, -0.43189555, 0.00000000, 0.00000000, 0.00000000, 0.00000000
1, 0.4900, 167, 0.78090328, 0.55729234, 0.16941145, 32.73667526, 8.15938282, 3.17443871, 56.91318130, 28.41274452, -62.37942123, -65.06655121, 44.08302689, 146.27252197, 0.03355765, 0.44739217, 0.38526368, -0.80640322, -0.08520348, 0.09409025, -0.47223595, 0.00000000, 0.00000000, 0.00000000, 0.00000000
1, 0.4925, 168, 0.78456831, 0.55342913, 0.20881458, 37.40113449, 9.29654789, 4.08383369, 56.91318130, 28.41274452, -62.37942123, -64.98928070, 44.10209274, 146.24919128, 0.03392898, 0.44756252, 0.38455886, -0.80662954, -0.08862950, 0.09733459, -0.51241934, 0.00000000, 0.00000000, 0.00000000, 0.00000000
1, 0.4950, 169, 0.78943372, 0.55373836, 0.24913450, 41.99036026, 10.84736824, 5.06902361, 56.91318130, 28.41274452, -62.37942123, -64.90291595, 44.12505341, 146.22245789, 0.03434077, 0.44776464, 0.38376221, -0.80687928, -0.09320720, 0.09631434, -0.55360144, 0.00000000, 0.00000000, 0.00000000, 0.00000000
1, 0.4975, 170, 0.79296392, 0.55695647, 0.29194567, 46.57418442, 13.02352428, 5.92283106, 56.91318130, 28.41274452, -62.37942123, -64.80897522, 44.15229416, 146.19015503, 0.03480050, 0.44800833, 0.38287449, -0.80714595, -0.09639615, 0.09229654, -0.59733701, 0.00000000, 0.00000000, 0.00000000, 0.00000000
1, 0.5000, 171, 0.79853684, 0.55989355, 0.32924944, 51.15816116, 15.13483429, 6.49599791, 57.03010941, 27.85735130, -62.08710861, -64.70760345, 44.18312836, 146.15209961, 0.03531253, 0.44829002, 0.38189843, -0.80742979, -0.10158312, 0.08847916, -0.63562888, 0.00000000, 0.00000000, 0.00000000, 0.00000000
1, 0.5025, 172, 0.79971814, 0.57261544, 0.36866716, 55.73635101, 17.81212997, 6.30751753, 57.03010941, 27.85735130, -62.08710861, -64.65179443, 44.23678207, 146.07684326, 0.03579588, 0.44884634, 0.38101360, -0.80751741, -0.10209319, 0.07486846, -0.67539859, 0.00000000, 0.00000000, 0.00000000, 0.00000000
1, 0.5050, 173, 0.81015313, 0.57092589, 0.36984190, 59.95033646, 20.85203171, 4.86622286, 57.03010941, 27.85735130, -62.08710861, -64.54271698, 44.27013397, 146.01838684, 0.03647050, 0.44920689, 0.37989315, -0.80781460, -0.11211124, 0.07560618, -0.67763090, 0.00000000, 0.00000000, 0.00000000, 0.00000000
1, 0.5075, 174, 0.83610880, 0.54238516, 0.37961638, 66.03541565, 23.82367325, 4.46698856, 57.03010941, 27.85735130, -62.08710861, -64.42536163, 44.30586624, 145.95001221, 0.03723634, 0.44961068, 0.37866619, -0.80813104, -0.13762048, 0.10312238, -0.68854094, 0.00000000, 0.00000000, 0.00000000, 0.00000000
1, 0.5100, 175, 0.84199983, 0.53496957, 0.39293253, 72.12519836, 26.55684471, 6.02282763, 57.03010941, 27.85735130, -62.08710861, -64.29714966, 44.34816360, 145.87545776, 0.03805696, 0.45006937, 0.37731335, -0.80847001, -0.14298332, 0.10938019, -0.70307684, 0.00000000, 0.00000000, 0.00000000, 0.00000000
1, 0.5125, 176, 0.84273648, 0.54377860, 0.40479684, 77.78356171, 29.35082817, 7.86066198, 56.94241333, 27.03887749, -62.02864456, -64.15898132, 44.39776611, 145.79496765, 0.03892361, 0.45058650, 0.37583926, -0.80882740, -0.14310125, 0.09927645, -0.71623039, 0.00000000, 0.00000000, 0.00000000, 0.00000000
1, 0.5150, 177, 0.84997332, 0.54965353, 0.40035063, 82.93163300, 32.90941620, 9.22095108, 56.94241333, 27.03887749, -62.02864456, -64.01431274, 44.45444489, 145.70545959, 0.03984590, 0.45117155, 0.37425655, -0.80919015, -0.14963159, 0.09199037, -0.71310335, 0.00000000, 0.00000000, 0.00000000, 0.00000000
1, 0.5175, 178, 0.86529142, 0.55123878, 0.41488501, 87.29087067, 36.25180817, 10.65082645, 56.94241333, 27.03887749, -62.02864456, -63.86457062, 44.51818848, 145.60771179, 0.04081300, 0.45182163, 0.37257841, -0.80955350, -0.16415596, 0.08888590, -0.72897017, 0.00000000, 0.00000000, 0.00000000, 0.00000000
1, 0.5200, 179, 0.88011914, 0.55974948, 0.43502533, 90.06686401, 39.78823853, 12.01856899, 56.94241333, 27.03887749, -62.02864456, -63.71419907, 44.58908463, 145.50111389, 0.04181185, 0.45254079, 0.37083289, -0.80990219, -0.17810196, 0.07877040, -0.75040495, 0.00000000, 0.00000000, 0.00000000, 0.00000000
1, 0.5225, 180, 0.90387237, 0.56339502, 0.43710986, 93.27570343, 43.05943298, 12.89171982, 56.94241333, 27.03887749, -62.02864456, -63.56209183, 44.66576004, 145.38569641, 0.04285322, 0.45331970, 0.36901727, -0.81024146, -0.20090282, 0.07344349, -0.75376517, 0.00000000, 0.00000000, 0.00000000, 0.00000000
1, 0.5250, 181, 0.93788469, 0.54242480, 0.43586379, 98.64843750, 45.38804626, 13.32537460, 57.26395798, 27.41888237, -61.41479111, -63.40123749, 44.74623108, 145.26376343, 0.04395857, 0.45413575, 0.36709821, -0.81059688, -0.23391688, 0.09263885, -0.75386310, 0.00000000, 0.00000000, 0.00000000, 0.00000000
1, 0.5275, 182, 0.96734816, 0.52556092, 0.45558563, 105.61106873, 46.75770187, 14.02059078, 57.26395798, 27.41888237, -61.41479111, -63.22525787, 44.83004379, 145.13877869, 0.04513131, 0.45497218, 0.36504561, -0.81099027, -0.26234215, 0.10760289, -0.77506971, 0.00000000, 0.00000000, 0.00000000, 0.00000000
1, 0.5300, 183, 0.98397964, 0.53462380, 0.47206482, 112.20726013, 48.95595551, 14.65830040, 57.26395798, 27.41888237, -61.41479111, -63.03694916, 44.91805267, 145.00808716, 0.04637545, 0.45584297, 0.36286530, -0.81140947, -0.27788508, 0.09652072, -0.79313684, 0.00000000, 0.00000000, 0.00000000, 0.00000000
1, 0.5325, 184, 1.00049806, 0.55819964, 0.47080332, 118.44277954, 51.29042435, 15.22909355, 57.26395798, 27.41888237, -61.41479111, -62.83758545, 45.01029205, 144.87120056, 0.04768962, 0.45674980, 0.36056378, -0.81184918, -0.29326445, 0.07081163, -0.79355013, 0.00000000, 0.00000000, 0.00000000, 0.00000000
1, 0.5350, 185, 1.02330053, 0.57921714, 0.46130261, 123.59809113, 53.88847351, 16.01681519, 57.26395798, 27.41888237, -61.41479111, -62.63019943, 45.10759735, 144.72763062, 0.04906124, 0.45769969, 0.35815743, -0.81229764, -0.31486726, 0.04755421, -0.78577125, 0.00000000, 0.00000000, 0.00000000, 0.00000000
1, 0.5375, 186, 1.05447960, 0.59610343, 0.45111045, 127.24859619, 55.91742706, 16.87167549, 56.82548904, 26.65887070, -62.37942123, -62.41722870, 45.20952988, 144.57934570, 0.05046957, 0.45868409, 0.35567239, -0.81274778, -0.34479189, 0.02833962, -0.77732265, 0.00000000, 0.00000000, 0.00000000, 0.00000000
1, 0.5400, 187, 1.09512639, 0.60753059, 0.43886024, 129.60650635, 57.66831970, 17.02759171, 56.82548904, 26.65887070, -62.37942123, -62.20208359, 45.31420898, 144.42608643, 0.05191185, 0.45969388, 0.35313869, -0.81319124, -0.38415271, 0.01453502, -0.76680982, 0.00000000, 0.00000000, 0.00000000, 0.00000000
1, 0.5425, 188, 1.14028656, 0.61401713, 0.42970222, 131.81596375, 59.84539032, 16.42042923, 56.82548904, 26.65887070, -62.37942123, -61.98700714, 45.42050934, 144.26524353, 0.05340330, 0.46073046, 0.35056588, -0.81362104, -0.42800951, 0.00564742, -0.75936455, 0.00000000, 0.00000000, 0.00000000, 0.00000000
1, 0.5450, 189, 1.18262255, 0.61894184, 0.40842858, 134.16355896, 62.58868790, 15.12109375, 56.82548904, 26.65887070, -62.37942123, -61.77378082, 45.52761078, 144.09384155, 0.05496185, 0.46179837, 0.34795764, -0.81403142, -0.46903485, -0.00168240, -0.73976433, 0.00000000, 0.00000000, 0.00000000, 0.00000000
1, 0.5475, 190, 1.22359657, 0.62409788, 0.37909618, 136.93998718, 65.48765564, 12.98318672, 56.82548904, 26.65887070, -62.37942123, -61.56277084, 45.63386917, 143.90995789, 0.05660774, 0.46289316, 0.34531441, -0.81442219, -0.50871062, -0.00922781, -0.71207201, 0.00000000, 0.00000000, 0.00000000, 0.00000000
1, 0.5500, 191, 1.26254678, 0.63080794, 0.29174799, 140.00563049, 68.11898041, 10.42106438, 56.44548416, 26.01578522, -61.41479111, -61.35323334, 45.73811722, 143.71363831, 0.05834931, 0.46400642, 0.34263548, -0.81479722, -0.54638970, -0.01830221, -0.62634599, 0.00000000, 0.00000000, 0.00000000, 0.00000000
1, 0.5525, 192, 1.32439947, 0.64370382, 0.24367292, 142.78703308, 70.27062225, 7.36378479, 56.44548416, 26.01578522, -61.41479111, -61.15313721, 45.84489441, 143.50102234, 0.06015988, 0.46518019, 0.33994430, -0.81512344, -0.60694313, -0.03354037, -0.57976371, 0.00000000, 0.00000000, 0.00000000, 0.00000000
1, 0.5550, 193, 1.34184432, 0.66674167, 0.19413333, 145.78179932, 71.87803650, -0.59737778, 56.44548416, 26.01578522, -61.41479111, -60.95162582, 45.93055725, 143.27409363, 0.06218267, 0.46625963, 0.33726141, -0.81546915, -0.62334722, -0.05870251, -0.53184664, 0.00000000, 0.00000000, 0.00000000, 0.00000000
1, 0.5575, 194, 1.34184432, 0.66674167, 0.19413333, 145.78179932, 71.87803650, -0.59737778, 56.44548416, 26.01578522, -61.41479111, -60.75027847, 46.01677322, 143.04722595, 0.06420469, 0.46733329, 0.33457428, -0.81580472, -0.62230140, -0.06083710, -0.53345257, 0.00000000, 0.00000000, 0.00000000, 0.00000000
1, 0.5600, 195, 1.35811746, 0.66623688, 0.09670091, 151.36380005, 73.32498932, -10.03791428, 56.44548416, 26.01578522, -61.41479111, -60.55037689, 46.08475113, 142.79928589, 0.06646136, 0.46834990, 0.33187771, -0.81614250, -0.63775122, -0.06226356, -0.43771225, 0.00000000, 0.00000000, 0.00000000, 0.00000000
1, 0.5625, 196, 1.35811746, 0.66623688, 0.09670091, 151.36380005, 73.32498932, -10.03791428, 56.27009583, 26.60040855, -61.88248825, -60.35065842, 46.15332031, 142.55137634, 0.06871714, 0.46936014, 0.32917660, -0.81646913, -0.63692164, -0.06420572, -0.43938872, 0.00000000, 0.00000000, 0.00000000, 0.00000000
1, 0.5650, 197, 1.33436263, 0.64783514, 0.00848569, 150.49772644, 72.08707428, -19.91342163, 56.27009583, 26.60040855, -61.88248825, -60.16318893, 46.19950867, 142.28973389, 0.07113013, 0.47027236, 0.32658949, -0.81677639, -0.61260855, -0.04743278, -0.35285211, 0.00000000, 0.00000000, 0.00000000, 0.00000000
1, 0.5675, 198, 1.30894458, 0.62116230, -0.04331571, 150.36418152, 70.01845551, -24.97672462, 56.27009583, 26.60040855, -61.88248825, -59.97806168, 46.23272324, 142.02545166, 0.07361630, 0.47110564, 0.32405558, -0.81708527, -0.58678943, -0.02223822, -0.30277938, 0.00000000, 0.00000000, 0.00000000, 0.00000000
1, 0.5700, 199, 1.28312600, 0.59341794, -0.07179298, 150.95329285, 67.53674316, -29.76823044, 56.27009583, 26.60040855, -61.88248825, -59.79220581, 46.25306320, 141.76029968, 0.07617538, 0.47185344, 0.32156000, -0.81740493, -0.56072527, 0.00415874, -0.27611405, 0.00000000, 0.00000000, 0.00000000, 0.00000000
1, 0.5725, 200, 1.25400364, 0.56953979, -0.10521441, 151.61189270, 65.52388000, -33.50450134, 56.27009583, 26.60040855, -61.88248825, -59.60512924, 46.26339340, 141.49461365, 0.07879274, 0.47253171, 0.31909016, -0.81773275, -0.53147817, 0.02678537, -0.24457610, 0.00000000, 0.00000000, 0.00000000, 0.00000000
1, 0.5750, 201, 1.22251332, 0.54942721, -0.15348142, 152.55845642, 63.63570404, -36.19091797, 56.38702011, 25.84039688, -61.85326004, -59.41498184, 46.26614761, 141.22991943, 0.08145356, 0.47314954, 0.31663004, -0.81807101, -0.49995488, 0.04570397, -0.19826847, 0.00000000, 0.00000000, 0.00000000, 0.00000000
1, 0.5775, 202, 1.19109952, 0.53482741, -0.20899604, 153.93974304, 61.52626419, -37.76272202, 56.38702011, 25.84039688, -61.85326004, -59.21874237, 46.26344681, 140.96890259, 0.08414102, 0.47371000, 0.31416091, -0.81842661, -0.46857345, 0.05912477, -0.14480753, 0.00000000, 0.00000000, 0.00000000, 0.00000000
1, 0.5800, 203, 1.15921724, 0.52633750, -0.25341839, 155.10842896, 59.13017273, -38.84813309, 56.38702011, 25.84039688, -61.85326004, -59.01563644, 46.25597763, 140.71330261, 0.08684234, 0.47421151, 0.31168219, -0.81880164, -0.43678147, 0.06643756, -0.10253704, 0.00000000, 0.00000000, 0.00000000, 0.00000000
1, 0.5825, 204, 1.12128437, 0.51050895, -0.30246201, 155.70825195, 56.03193283, -39.66144943, 56.38702011, 25.84039688, -61.85326004, -58.80516052, 46.24339676, 140.46578979, 0.08954213, 0.47464445, 0.30920273, -0.81919992, -0.39900029, 0.08109009, -0.05575058, 0.00000000, 0.00000000, 0.00000000, 0.00000000
1, 0.5850, 205, 1.08764279, 0.49958971, -0.33225423, 155.80961609, 52.43774414, -40.06021118, 56.38702011, 25.84039688, -61.85326004, -58.58690262, 46.22594070, 140.22862244, 0.09222463, 0.47500378, 0.30672836, -0.81962419, -0.36556947, 0.09082839, -0.02832407, 0.00000000, 0.00000000, 0.00000000, 0.00000000
1, 0.5875, 206, 1.05266631, 0.49763635, -0.35323045, 154.90046692, 49.31991959, -40.51916122, 55.48085403, 25.69424057, -60.94709015, -58.36456680, 46.20405960, 140.00019836, 0.09488380, 0.47529972, 0.30427718, -0.82006264, -0.33085728, 0.09161280, -0.00978080, 0.00000000, 0.00000000, 0.00000000, 0.00000000
1, 0.5900, 207, 1.01431918, 0.49326923, -0.36983764, 153.84637451, 46.33922195, -40.97577286, 55.48085403, 25.69424057, -60.94709015, -58.13884354, 46.17790222, 139.78001404, 0.09751917, 0.47553515, 0.30185172, -0.82051319, -0.29282618, 0.09482494, 0.00433394, 0.00000000, 0.00000000, 0.00000000, 0.00000000
1, 0.5925, 208, 0.98058021, 0.49557951, -0.37902018, 153.00828552, 43.35724640, -41.22329712, 55.48085403, 25.69424057, -60.94709015, -57.90891647, 46.14788055, 139.56848145, 0.10012936, 0.47571123, 0.29944623, -0.82097799, -0.25945008, 0.09136334, 0.01095867, 0.00000000, 0.00000000, 0.00000000, 0.00000000
1, 0.5950, 209, 0.95101565, 0.51853931, -0.38655099, 152.38581848, 40.37728119, -41.47148514, 55.48085403, 25.69424057, -60.94709015, -57.67428207, 46.11396408, 139.36549377, 0.10271682, 0.47582763, 0.29705718, -0.82145882, -0.23029578, 0.06725211, 0.01586066, 0.00000000, 0.00000000, 0.00000000, 0.00000000
1, 0.5975, 210, 0.92763638, 0.54563391, -0.38889885, 151.69639587, 36.71305847, -42.28826523, 55.48085403, 25.69424057, -60.94709015, -57.43443680, 46.07398987, 139.17202759, 0.10528670, 0.47586855, 0.29469344, -0.82196087, -0.20740032, 0.03902429, 0.01548898, 0.00000000, 0.00000000, 0.00000000, 0.00000000
1, 0.6000, 211, 0.89929026, 0.55415720, -0.40960610, 149.92166138, 33.80807114, -43.58077240, 55.39315796, 27.33119011, -61.56094742, -57.19446564, 46.02793121, 138.98475647, 0.10784137, 0.47584736, 0.29237798, -0.82246864, -0.17961210, 0.02941829, 0.03343728, 0.00000000, 0.00000000, 0.00000000, 0.00000000
1, 0.6025, 212, 0.86808628, 0.52999103, -0.44938192, 147.64205933, 31.04234886, -45.21944809, 55.39315796, 27.33119011, -61.56094742, -56.95373535, 45.97754288, 138.80418396, 0.11037131, 0.47577286, 0.29010165, -0.82298201, -0.14901900, 0.05252928, 0.07041943, 0.00000000, 0.00000000, 0.00000000, 0.00000000
1, 0.6050, 213, 0.83523619, 0.51069772, -0.46928379, 145.22618103, 27.56533432, -45.74828339, 55.39315796, 27.33119011, -61.56094742, -56.71497345, 45.91950226, 138.63124084, 0.11287393, 0.47562584, 0.28790098, -0.82350016, -0.11687329, 0.07084687, 0.08749770, 0.00000000, 0.00000000, 0.00000000, 0.00000000
1, 0.6075, 214, 0.81037253, 0.50300711, -0.48120376, 142.80555725, 24.83344841, -45.21789169, 55.39315796, 27.33119011, -61.56094742, -56.47561646, 45.85931396, 138.46736145, 0.11532349, 0.47543374, 0.28574181, -0.82402360, -0.09274077, 0.07756621, 0.09657496, 0.00000000, 0.00000000, 0.00000000, 0.00000000
1, 0.6100, 215, 0.78780305, 0.50541925, -0.48527530, 140.58793640, 23.68945122, -44.24699402, 55.39315796, 27.33119011, -61.56094742, -56.23797989, 45.80002975, 138.30865479, 0.11772422, 0.47522756, 0.28361225, -0.82453871, -0.07089223, 0.07417084, 0.09782946, 0.00000000, 0.00000000, 0.00000000, 0.00000000
1, 0.6125, 216, 0.77030504, 0.51374966, -0.48890007, 138.86531067, 23.52058220, -43.33443832, 55.39315796, 27.33119011, -61.56094742, -56.00300980, 45.74286652, 138.15209961, 0.12008838, 0.47502339, 0.28150168, -0.82503843, -0.05409016, 0.06483926, 0.09868091, 0.00000000, 0.00000000, 0.00000000, 0.00000000
1, 0.6150, 217, 0.76285261, 0.52400702, -0.49508205, 137.20501709, 24.46347809, -42.61681747, 55.59777832, 26.89272118, -62.20403290, -55.77317810, 45.68894577, 137.99400330, 0.12242701, 0.47484013, 0.27940822, -0.82551175, -0.04729481, 0.05356891, 0.10216624, 0.00000000, 0.00000000, 0.00000000, 0.00000000
1, 0.6175, 218, 0.75985628, 0.54094511, -0.50275946, 136.03973389, 26.38150215, -41.95754242, 55.59777832, 26.89272118, -62.20403290, -55.54937744, 45.63954926, 137.83140564, 0.12475214, 0.47469378, 0.27732095, -0.82595152, -0.04490102, 0.03560031, 0.10724163, 0.00000000, 0.00000000, 0.00000000, 0.00000000
1, 0.6200, 219, 0.75536025, 0.56096685, -0.52028453, 135.08367920, 29.00050545, -41.70908356, 55.59777832, 26.89272118, -62.20403290, -55.33311081, 45.59480667, 137.66148376, 0.12707749, 0.47459400, 0.27523845, -0.82635081, -0.04095119, 0.01454061, 0.12227583, 0.00000000, 0.00000000, 0.00000000, 0.00000000
1, 0.6225, 220, 0.74919248, 0.57227671, -0.53952819, 133.47276306, 32.39155579, -42.49711609, 55.59777832, 26.89272118, -62.20403290, -55.12910843, 45.55371094, 137.47990417, 0.12941949, 0.47455040, 0.27318105, -0.82669502, -0.03528547, 0.00223023, 0.13918009, 0.00000000, 0.00000000, 0.00000000, 0.00000000
1, 0.6250, 221, 0.73758137, 0.57745725, -0.56178725, 130.48866272, 36.54244614, -43.96976089, 55.59777832, 26.89272118, -62.20403290, -54.94335175, 45.51597977, 137.28308105, 0.13178064, 0.47457671, 0.27117836, -0.82696629, -0.02413566, -0.00386655, 0.15930873, 0.00000000, 0.00000000, 0.00000000, 0.00000000
1, 0.6275, 222, 0.72536612, 0.57705414, -0.58926278, 126.41934204, 41.51521301, -45.49765015, 54.86699677, 27.65273285, -62.05787659, -54.78028107, 45.48269272, 137.06860352, 0.13415536, 0.47469079, 0.26924798, -0.82714963, -0.01232761, -0.00427282, 0.18491444, 0.00000000, 0.00000000, 0.00000000, 0.00000000
1, 0.6300, 223, 0.71690524, 0.57644010, -0.61797130, 121.55348206, 47.23671341, -46.66308212, 54.86699677, 27.65273285, -62.05787659, -54.64289093, 45.45569611, 136.83505249, 0.13653310, 0.47491121, 0.26739824, -0.82723415, -0.00419718, -0.00435603, 0.21205628, 0.00000000, 0.00000000, 0.00000000, 0.00000000
1, 0.6325, 224, 0.71303058, 0.58210725, -0.64598203, 116.46434784, 53.92113876, -47.53496552, 54.86699677, 27.65273285, -62.05787659, -54.53326035, 45.43695450, 136.58030701, 0.13891162, 0.47525805, 0.26562706, -0.82720965, -0.00055200, -0.01061105, 0.23883778, 0.00000000, 0.00000000, 0.00000000, 0.00000000
1, 0.6350, 225, 0.71726418, 0.59695226, -0.66836995, 111.73041534, 61.15842819, -48.12075424, 54.86699677, 27.65273285, -62.05787659, -54.45122528, 45.42782974, 136.30337524, 0.14129230, 0.47574216, 0.26392308, -0.82707345, -0.00489736, -0.02594727, 0.26034194, 0.00000000, 0.00000000, 0.00000000, 0.00000000
1, 0.6375, 226, 0.72583050, 0.61933422, -0.69199556, 106.70613861, 68.67546082, -49.05150604, 54.86699677, 27.65273285, -62.05787659, -54.39861679, 45.42797089, 136.00274658, 0.14367969, 0.47636786, 0.26229393, -0.82682025, -0.01346195, -0.04870558, 0.28344443, 0.00000000, 0.00000000, 0.00000000, 0.00000000
1, 0.6400, 227, 0.73631096, 0.64279723, -0.72184056, 101.60932922, 76.19842529, -50.40158081, 54.89622879, 27.65273285, -62.87635040, -54.37630081, 45.43645859, 135.67750549, 0.14608026, 0.47713333, 0.26074487, -0.82644814, -0.02383847, -0.07241358, 0.31312880, 0.00000000, 0.00000000, 0.00000000, 0.00000000
1, 0.6425, 228, 0.74715149, 0.66130936, -0.75787205, 96.01060486, 83.45072174, -52.45307541, 54.89622879, 27.65273285, -62.87635040, -54.38608170, 45.45135498, 135.32691956, 0.14849947, 0.47803143, 0.25929266, -0.82595474, -0.03449655, -0.09100652, 0.34936547, 0.00000000, 0.00000000, 0.00000000, 0.00000000
1, 0.6450, 229, 0.75610620, 0.66760093, -0.79103172, 90.20124054, 90.01631165, -55.00278091, 54.89622879, 27.65273285, -62.87635040, -54.42787170, 45.47051620, 134.95191956, 0.15093984, 0.47904792, 0.25794810, -0.82534432, -0.04321671, -0.09719422, 0.38307995, 0.00000000, 0.00000000, 0.00000000, 0.00000000
1, 0.6475, 230, 0.76447475, 0.67623150, -0.81596720, 85.33739471, 95.27402496, -57.50337219, 54.89622879, 27.65273285, -62.87635040, -54.49659729, 45.49198151, 134.55632019, 0.15340257, 0.48015654, 0.25669751, -0.82463557, -0.05132258, -0.10555333, 0.40885502, 0.00000000, 0.00000000, 0.00000000, 0.00000000
1, 0.6500, 231, 0.77146882, 0.69411814, -0.87839502, 82.20925903, 99.23674011, -60.30696487, 54.89622879, 27.65273285, -62.87635040, -54.58574295, 45.51309204, 134.14321899, 0.15590371, 0.48132670, 0.25551692, -0.82385063, -0.05805840, -0.12302145, 0.47232363, 0.00000000, 0.00000000, 0.00000000, 0.00000000
1, 0.6525, 232, 0.75972670, 0.67353338, -0.93025345, 80.09320068, 102.39008331, -63.89416504, 55.10084534, 29.20198822, -62.17480087, -54.68570709, 45.52795792, 133.71723938, 0.15847632, 0.48250026, 0.25438109, -0.82302433, -0.04613453, -0.10188001, 0.52528584, 0.00000000, 0.00000000, 0.00000000, 0.00000000
1, 0.6550, 233, 0.74420416, 0.66089773, -0.98039377, 77.47438049, 105.09141541, -69.86383057, 55.10084534, 29.20198822, -62.17480087, -54.81329346, 45.53695679, 133.26704407, 0.16112870, 0.48372918, 0.25336075, -0.82210231, -0.03050194, -0.08843566, 0.57676494, 0.00000000, 0.00000000, 0.00000000, 0.00000000
1, 0.6575, 234, 0.74420416, 0.66089773, -0.98039377, 77.47438049, 105.09141541, -69.86383057, 55.10084534, 29.20198822, -62.17480087, -54.94100189, 45.54525375, 132.81677246, 0.16377938, 0.48495302, 0.25233778, -0.82117158, -0.03040043, -0.08762200, 0.57810128, 0.00000000, 0.00000000, 0.00000000, 0.00000000
1, 0.6600, 235, 0.71006936, 0.62882751, -1.10496736, 64.15427399, 107.28278351, -71.74889374, 55.10084534, 29.20198822, -62.17480087, -55.10944366, 45.55201721, 132.35614014, 0.16633329, 0.48624831, 0.25156298, -0.82012922, 0.00381690, -0.05444074, 0.70441008, 0.00000000, 0.00000000, 0.00000000, 0.00000000
1, 0.6625, 236, 0.71006936, 0.62882751, -1.10496736, 64.15427399, 107.28278351, -71.74889374, 55.10084534, 29.20198822, -62.17480087, -55.27798080, 45.55783081, 131.89541626, 0.16888557, 0.48753881, 0.25078568, -0.81907874, 0.00388789, -0.05332454, 0.70614254, 0.00000000, 0.00000000, 0.00000000, 0.00000000
1, 0.6650, 237, 0.69632614, 0.60145760, -1.18173170, 59.54761505, 99.47354889, -71.14033508, 54.37006760, 29.46506882, -61.67787170, -55.44079590, 45.55286407, 131.45883179, 0.17133370, 0.48870566, 0.25011069, -0.81808084, 0.01757050, -0.02477265, 0.78450906, 0.00000000, 0.00000000, 0.00000000, 0.00000000
1, 0.6675, 238, 0.67558450, 0.59099740, -1.19639087, 58.43663406, 94.88213348, -70.49955750, 54.37006760, 29.46506882, -61.67787170, -55.59571075, 45.54187775, 131.03717041, 0.17373200, 0.48979393, 0.24946368, -0.81712115, 0.03817785, -0.01312757, 0.80065131, 0.00000000, 0.00000000, 0.00000000, 0.00000000
1, 0.6700, 239, 0.64670879, 0.59072655, -1.20403433, 57.25840378, 89.86254883, -69.09503174, 54.37006760, 29.46506882, -61.67787170, -55.74082947, 45.52593613, 130.63323975, 0.17606398, 0.49080095, 0.24883972, -0.81620753, 0.06685865, -0.01169211, 0.80964780, 0.00000000, 0.00000000, 0.00000000, 0.00000000
1, 0.6725, 240, 0.61541647, 0.59017086, -1.20972192, 55.93982697, 84.48994446, -67.34513092, 54.37006760, 29.46506882, -61.67787170, -55.87520218, 45.50537109, 130.24888611, 0.17832023, 0.49172321, 0.24823928, -0.81534493, 0.09789956, -0.01000112, 0.81655085, 0.00000000, 0.00000000, 0.00000000, 0.00000000
1, 0.6750, 241, 0.58825326, 0.58887595, -1.21396303, 54.19096375, 79.03968048, -65.31512451, 54.37006760, 29.46506882, -61.67787170, -55.99930954, 45.48077393, 129.88488770, 0.18049090, 0.49256310, 0.24766776, -0.81453389, 0.12476179, -0.00760216, 0.82187867, 0.00000000, 0.00000000, 0.00000000, 0.00000000
1, 0.6775, 242, 0.56281412, 0.58481377, -1.21323991, 52.80319595, 73.44879913, -62.93849564, 54.19467926, 30.02046204, -61.79479599, -56.11143875, 45.45277405, 129.54240417, 0.18257307, 0.49331886, 0.24711582, -0.81377965, 0.14985818, -0.00248462, 0.82209939, 0.00000000, 0.00000000, 0.00000000, 0.00000000
1, 0.6800, 243, 0.54211354, 0.58218253, -1.20786130, 51.12277222, 68.54100037, -60.13200378, 54.19467926, 30.02046204, -61.79479599, -56.21315002, 45.42331696, 129.22027588, 0.18455990, 0.49400660, 0.24658172, -0.81307596, 0.17019802, 0.00114441, 0.81755149, 0.00000000, 0.00000000, 0.00000000, 0.00000000
1, 0.6825, 244, 0.52718413, 0.59091574, -1.20439756, 49.58349991, 64.04119873, -56.76092529, 54.19467926, 30.02046204, -61.79479599, -56.30418396, 45.39424896, 128.91838074, 0.18644521, 0.49463642, 0.24605548, -0.81242204, 0.18477124, -0.00666869, 0.81481457, 0.00000000, 0.00000000, 0.00000000, 0.00000000
1, 0.6850, 245, 0.51453590, 0.60483742, -1.20195901, 48.03925705, 60.16233444, -53.24153137, 54.19467926, 30.02046204, -61.79479599, -56.38570786, 45.36680984, 128.63511658, 0.18822984, 0.49522051, 0.24553335, -0.81181252, 0.19708312, -0.01975274, 0.81301898, 0.00000000, 0.00000000, 0.00000000, 0.00000000
1, 0.6875, 246, 0.50684494, 0.62258905, -1.19922757, 46.27700043, 56.49576569, -50.13818359, 54.19467926, 30.02046204, -61.79479599, -56.45932770, 45.34049225, 128.36901855, 0.18992007, 0.49576151, 0.24502297, -0.81124258, 0.20445120, -0.03673276, 0.81085908, 0.00000000, 0.00000000, 0.00000000, 0.00000000
1, 0.6900, 247, 0.50427228, 0.63455987, -1.19463992, 44.00836945, 53.17397690, -47.23833084, 54.77930450, 31.10201645, -61.67787170, -56.52737045, 45.31541061, 128.11862183, 0.19151606, 0.49626699, 0.24453431, -0.81070572, 0.20671630, -0.04798301, 0.80679595, 0.00000000, 0.00000000, 0.00000000, 0.00000000
1, 0.6925, 248, 0.50437725, 0.64347029, -1.19010460, 41.59366226, 50.12779236, -44.33426285, 54.77930450, 31.10201645, -61.67787170, -56.59080505, 45.29198074, 127.88311005, 0.19301765, 0.49674252, 0.24406885, -0.81019843, 0.20632356, -0.05622178, 0.80274999, 0.00000000, 0.00000000, 0.00000000, 0.00000000
1, 0.6950, 249, 0.50737476, 0.66057897, -1.18190598, 39.39093781, 47.50125122, -41.56506729, 54.77930450, 31.10201645, -61.67787170, -56.65021133, 45.27054596, 127.66092682, 0.19443192, 0.49719429, 0.24362269, -0.80971730, 0.20306283, -0.07270706, 0.79501426, 0.00000000, 0.00000000, 0.00000000, 0.00000000
1, 0.6975, 250, 0.51302361, 0.67013043, -1.18604827, 36.97050858, 45.08369064, -39.00215912, 54.77930450, 31.10201645, -61.67787170, -56.70687103, 45.25098038, 127.45103455, 0.19576131, 0.49762598, 0.24320114, -0.80925840, 0.19717360, -0.08167344, 0.79960501, 0.00000000, 0.00000000, 0.00000000, 0.00000000
1, 0.7000, 251, 0.51512474, 0.68779314, -1.19115889, 33.90318680, 42.59635544, -36.78778076, 54.77930450, 31.10201645, -61.67787170, -56.76279068, 45.23249435, 127.25292969, 0.19700471, 0.49803758, 0.24281982, -0.80881792, 0.19484538, -0.09876767, 0.80516481, 0.00000000, 0.00000000, 0.00000000, 0.00000000
1, 0.7025, 252, 0.51843482, 0.70159793, -1.20121884, 30.03772736, 40.93796921, -34.90925217, 54.07775497, 31.24817276, -61.44402313, -56.80819702, 45.20731735, 127.07198334, 0.19820350, 0.49835709, 0.24246894, -0.80843335, 0.19122577, -0.11200580, 0.81552100, 0.00000000, 0.00000000, 0.00000000, 0.00000000
1, 0.7050, 253, 0.52331483, 0.71204144, -1.21646583, 26.02666283, 39.48706055, -33.09737396, 54.07775497, 31.24817276, -61.44402313, -56.87191772, 45.19204330, 126.89048004, 0.19927895, 0.49876550, 0.24219878, -0.80799794, 0.18615788, -0.12186229, 0.83132029, 0.00000000, 0.00000000, 0.00000000, 0.00000000
1, 0.7075, 254, 0.53535289, 0.71813178, -1.23448253, 21.65755272, 37.89212036, -31.14639664, 54.07775497, 31.24817276, -61.44402313, -56.94044876, 45.17853928, 126.71755219, 0.20026374, 0.49917439, 0.24199101, -0.80756408, 0.17395365, -0.12735224, 0.84995192, 0.00000000, 0.00000000, 0.00000000, 0.00000000
1, 0.7100, 255, 0.55298418, 0.72320926, -1.24861574, 17.43498421, 35.95343018, -29.27050209, 54.07775497, 31.24817276, -61.44402313, -57.01279831, 45.16616440, 126.55407715, 0.20115900, 0.49957684, 0.24184537, -0.80713624, 0.15617013, -0.13181627, 0.86474812, 0.00000000, 0.00000000, 0.00000000, 0.00000000
1, 0.7125, 256, 0.57365209, 0.73045594, -1.25868952, 13.42878914, 33.88267136, -27.67686653, 54.07775497, 31.24817276, -61.44402313, -57.08855438, 45.15418243, 126.39990997, 0.20197140, 0.49996829, 0.24176174, -0.80671597, 0.13535479, -0.13843134, 0.87552381, 0.00000000, 0.00000000, 0.00000000, 0.00000000
1, 0.7150, 257, 0.59192371, 0.74036360, -1.25784206, 9.71514034, 31.12991524, -26.58301163, 54.54545212, 31.36509705, -61.91172028, -57.16621780, 45.14059830, 126.25608826, 0.20270932, 0.50033289, 0.24174342, -0.80631018, 0.11691594, -0.14767903, 0.87538785, 0.00000000, 0.00000000, 0.00000000, 0.00000000
1, 0.7175, 258, 0.61382794, 0.76726460, -1.24048972, 6.01048613, 27.14516258, -26.41511917, 54.54545212, 31.36509705, -61.91172028, -57.24443436, 45.12184525, 126.12452698, 0.20338269, 0.50064433, 0.24180590, -0.80592847, 0.09478074, -0.17386335, 0.85871941, 0.00000000, 0.00000000, 0.00000000, 0.00000000
1, 0.7200, 259, 0.64016366, 0.79209393, -1.20570374, 3.17593431, 22.07824326, -27.38378143, 54.54545212, 31.36509705, -61.91172028, -57.32024384, 45.09407806, 126.00630951, 0.20401527, 0.50087386, 0.24195114, -0.80558240, 0.06810315, -0.19789910, 0.82453382, 0.00000000, 0.00000000, 0.00000000, 0.00000000
1, 0.7225, 260, 0.65333855, 0.78951401, -1.18426359, 1.19381928, 18.07332230, -29.31999016, 54.54545212, 31.36509705, -61.91172028, -57.39505005, 45.05673599, 125.89643860, 0.20463893, 0.50103122, 0.24217002, -0.80526042, 0.05446786, -0.19443315, 0.80362076, 0.00000000, 0.00000000, 0.00000000, 0.00000000
1, 0.7250, 261, 0.65471411, 0.77529562, -1.18680573, -0.94107223, 15.17266464, -31.10084724, 54.54545212, 31.36509705, -61.91172028, -57.47130966, 45.01161957, 125.79199219, 0.20525515, 0.50113750, 0.24245872, -0.80495059, 0.05253580, -0.17923900, 0.80665588, 0.00000000, 0.00000000, 0.00000000, 0.00000000
1, 0.7275, 262, 0.65337098, 0.75739926, -1.20821726, -3.36703801, 12.81223583, -32.17402267, 54.19467926, 32.65127182, -60.91785812, -57.54991150, 44.96097946, 125.69269562, 0.20585106, 0.50120723, 0.24281214, -0.80464834, 0.05325389, -0.16029441, 0.82855004, 0.00000000, 0.00000000, 0.00000000, 0.00000000
1, 0.7300, 263, 0.65556031, 0.73666269, -1.22760189, -5.93298817, 10.03174400, -33.04262543, 54.19467926, 32.65127182, -60.91785812, -57.63003540, 44.90467834, 125.60025787, 0.20641933, 0.50123483, 0.24323250, -0.80435866, 0.05036891, -0.13844129, 0.84839857, 0.00000000, 0.00000000, 0.00000000, 0.00000000
1, 0.7325, 264, 0.65973037, 0.71273923, -1.23836350, -8.78650665, 7.31230974, -33.55975342, 54.19467926, 32.65127182, -60.91785812, -57.71205139, 44.84356308, 125.51513672, 0.20695090, 0.50122446, 0.24372065, -0.80408067, 0.04544300, -0.11333951, 0.85961509, 0.00000000, 0.00000000, 0.00000000, 0.00000000
1, 0.7350, 265, 0.66667253, 0.69797915, -1.24422479, -11.57017708, 4.93094778, -33.51300430, 54.19467926, 32.65127182, -60.91785812, -57.79573441, 44.77927780, 125.43743896, 0.20743841, 0.50118476, 0.24426773, -0.80381364, 0.03770483, -0.09735769, 0.86593056, 0.00000000, 0.00000000, 0.00000000, 0.00000000
1, 0.7375, 266, 0.67142969, 0.69339794, -1.24039435, -14.35813999, 3.10018969, -33.24895477, 54.19467926, 32.65127182, -60.91785812, -57.88198853, 44.71303177, 125.36591339, 0.20788096, 0.50112677, 0.24486898, -0.80355257, 0.03212649, -0.09151842, 0.86257225, 0.00000000, 0.00000000, 0.00000000, 0.00000000
1, 0.7400, 267, 0.67922992, 0.69326216, -1.22831476, -17.50608635, 1.33531296, -32.98283768, 54.10698700, 33.55743790, -61.47325134, -57.97185898, 44.64493179, 125.30033875, 0.20827484, 0.50105321, 0.24553032, -0.80329454, 0.02348113, -0.09008217, 0.85099363, 0.00000000, 0.00000000, 0.00000000, 0.00000000
1, 0.7425, 268, 0.68996936, 0.68865603, -1.21215510, -20.72687721, -0.42034891, -33.34582138, 54.10698700, 33.55743790, -61.47325134, -58.06634903, 44.57366943, 125.23957825, 0.20863037, 0.50096124, 0.24625993, -0.80303639, 0.01185620, -0.08411326, 0.83536744, 0.00000000, 0.00000000, 0.00000000, 0.00000000
1, 0.7450, 269, 0.70300877, 0.68043941, -1.20069885, -23.87814903, -1.96103561, -34.12575150, 54.10698700, 33.55743790, -61.47325134, -58.16627884, 44.49863052, 125.18220520, 0.20895663, 0.50085199, 0.24706005, -0.80277383, -0.00211674, -0.07446010, 0.82448184, 0.00000000, 0.00000000, 0.00000000, 0.00000000
1, 0.7475, 270, 0.71117508, 0.67484379, -1.19359148, -26.45574188, -3.35567880, -35.04545975, 54.10698700, 33.55743790, -61.47325134, -58.27070618, 44.41973114, 125.12754822, 0.20926313, 0.50072467, 0.24792150, -0.80250776, -0.01126593, -0.06735957, 0.81797206, 0.00000000, 0.00000000, 0.00000000, 0.00000000
1, 0.7500, 271, 0.71504653, 0.67040980, -1.20038819, -28.89024925, -4.67864180, -36.03460312, 54.10698700, 33.55743790, -61.47325134, -58.37947845, 44.33693314, 125.07528687, 0.20955302, 0.50057954, 0.24884219, -0.80223775, -0.01617027, -0.06135274, 0.82539290, 0.00000000, 0.00000000, 0.00000000, 0.00000000
1, 0.7525, 272, 0.71056730, 0.66479236, -1.20449758, -31.54130173, -5.93108797, -37.23190308, 53.93159866, 34.08359909, -60.80093384, -58.47935486, 44.24498367, 125.03325653, 0.20985466, 0.50034636, 0.24978794, -0.80201030, -0.01283973, -0.05412728, 0.82997859, 0.00000000, 0.00000000, 0.00000000, 0.00000000
1, 0.7550, 273, 0.71056730, 0.66479236, -1.20449758, -31.54130173, -5.93108797, -37.23190308, 53.93159866, 34.08359909, -60.80093384, -58.59315872, 44.15785217, 124.98312378, 0.21012937, 0.50018382, 0.25077325, -0.80173224, -0.01392996, -0.05247974, 0.83063972, 0.00000000, 0.00000000, 0.00000000, 0.00000000
1, 0.7575, 274, 0.70320737, 0.63663310, -1.22373199, -41.64715576, -10.38006973, -42.15500641, 53.93159866, 34.08359909, -60.80093384, -58.72892380, 44.05434418, 124.93764496, 0.21035527, 0.49996215, 0.25200909, -0.80142373, -0.00786722, -0.02236164, 0.85067344, 0.00000000, 0.00000000, 0.00000000, 0.00000000
1, 0.7600, 275, 0.70320737, 0.63663310, -1.22373199, -41.64715576, -10.38006973, -42.15500641, 53.93159866, 34.08359909, -60.80093384, -58.86433411, 43.95076370, 124.89260864, 0.21058081, 0.49973962, 0.25324449, -0.80111384, -0.00916761, -0.02040667, 0.85147703, 0.00000000, 0.00000000, 0.00000000, 0.00000000
1, 0.7625, 276, 0.68179262, 0.58862716, -1.22650039, -49.09571457, -14.21073151, -45.19002914, 53.93159866, 34.08359909, -60.80093384, -59.01387787, 43.83564758, 124.85395050, 0.21075659, 0.49946651, 0.25466025, -0.80078894, 0.01079929, 0.02976280, 0.85513771, 0.00000000, 0.00000000, 0.00000000, 0.00000000
1, 0.7650, 277, 0.66481471, 0.56252313, -1.22051096, -52.53320694, -15.95742226, -46.25157547, 53.78544235, 35.07746124, -60.56708527, -59.16932678, 43.71595383, 124.81909943, 0.21090327, 0.49917173, 0.25615510, -0.80045736, 0.02626878, 0.05811328, 0.85008663, 0.00000000, 0.00000000, 0.00000000, 0.00000000
1, 0.7675, 278, 0.64370477, 0.54322737, -1.21049857, -55.39458847, -17.70972443, -46.61569214, 53.78544235, 35.07746124, -60.56708527, -59.32836914, 43.59316635, 124.78932190, 0.21101482, 0.49885619, 0.25771129, -0.80012506, 0.04582816, 0.07970732, 0.84104371, 0.00000000, 0.00000000, 0.00000000, 0.00000000
1, 0.7700, 279, 0.62016910, 0.52865112, -1.19600987, -58.11351395, -19.25737000, -46.69772720, 53.78544235, 35.07746124, -60.56708527, -59.49071503, 43.46815872, 124.76454163, 0.21108897, 0.49852434, 0.25932229, -0.79979193, 0.06778216, 0.09662259, 0.82755911, 0.00000000, 0.00000000, 0.00000000, 0.00000000
1, 0.7725, 280, 0.59505141, 0.51712126, -1.18012702, -60.83174896, -20.87534904, -46.71078110, 53.78544235, 35.07746124, -60.56708527, -59.65616989, 43.34103775, 124.74507141, 0.21112397, 0.49817520, 0.26098746, -0.79945844, 0.09128787, 0.11052945, 0.81271315, 0.00000000, 0.00000000, 0.00000000, 0.00000000
1, 0.7750, 281, 0.57310307, 0.50068796, -1.16420364, -63.55003357, -22.42958260, -46.37326813, 53.78544235, 35.07746124, -60.56708527, -59.82444000, 43.21264267, 124.73136139, 0.21111402, 0.49781182, 0.26270273, -0.79912549, 0.11160465, 0.12936705, 0.79786229, 0.00000000, 0.00000000, 0.00000000, 0.00000000
1, 0.7775, 282, 0.55296236, 0.49218106, -1.14315236, -66.26992035, -23.77720261, -45.96301651, 53.78544235, 35.07746124, -60.56708527, -59.99590302, 43.08342361, 124.72290039, 0.21105899, 0.49743825, 0.26446635, -0.79879093, 0.13009998, 0.14030316, 0.77792704, 0.00000000, 0.00000000, 0.00000000, 0.00000000
1, 0.7800, 283, 0.53184563, 0.48260513, -1.12504840, -68.70126343, -25.25951385, -45.62546539, 53.52236176, 35.54516220, -60.74247360, -60.16967010, 42.95306396, 124.71995544, 0.21096240, 0.49705026, 0.26627457, -0.79845715, 0.14955318, 0.15233037, 0.76097059, 0.00000000, 0.00000000, 0.00000000, 0.00000000
1, 0.8425, 284, -0.00112231, 0.09791581, -0.49429724, -96.34828186, -29.89682961, -0.48662394, 52.76234818, 37.03595352, -58.93013763, -65.08674622, 40.37065125, 125.95317078, 0.19413625, 0.48852354, 0.31761196, -0.78916317, 0.64885187, 0.59305972, 0.17336243, 0.00000000, 0.00000000, 0.00000000, 0.00000000
1, 0.8450, 285, -0.02395652, 0.08599187, -0.48453504, -99.00172424, -29.98538589, 3.57737374, 52.76234818, 37.03595352, -58.93013763, -65.27323914, 40.34731293, 126.04738617, 0.19281122, 0.48845011, 0.31940448, -0.78880984, 0.67137563, 0.60626441, 0.16574055, 0.00000000, 0.00000000, 0.00000000, 0.00000000
1, 0.8475, 286, -0.03606354, 0.07023014, -0.42621896, -102.51662445, -30.15673637, 7.99276495, 52.76234818, 37.03595352, -58.93013763, -65.46424866, 40.33404541, 126.14823151, 0.19137059, 0.48841679, 0.32120955, -0.78844839, 0.68330634, 0.62322146, 0.10967198, 0.00000000, 0.00000000, 0.00000000, 0.00000000
1, 0.8500, 287, -0.02741146, 0.05614379, -0.39248142, -105.96258545, -29.91747665, 12.76319790, 52.76234818, 37.03595352, -58.93013763, -65.66014099, 40.33215332, 126.25485992, 0.18981177, 0.48843259, 0.32302022, -0.78807563, 0.67462909, 0.63840550, 0.07829826, 0.00000000, 0.00000000, 0.00000000, 0.00000000
1, 0.8525, 288, -0.01498656, 0.03910601, -0.35745266, -108.68481445, -29.27911758, 23.41164398, 52.76234818, 37.03595352, -58.93013763, -65.83804321, 40.35017395, 126.38288879, 0.18808112, 0.48846143, 0.32470697, -0.78777939, 0.66244376, 0.65622962, 0.04551098, 0.00000000, 0.00000000, 0.00000000, 0.00000000
1, 0.8550, 289, -0.01498656, 0.03910601, -0.35745266, -108.68481445, -29.27911758, 23.41164398, 53.52236176, 36.77287292, -58.22858810, -66.03267670, 40.37376785, 126.50192261, 0.18631254, 0.48856851, 0.32644454, -0.78741509, 0.66275769, 0.65704161, 0.04798304, 0.00000000, 0.00000000, 0.00000000, 0.00000000
1, 0.8575, 290, 0.00585922, 0.04525741, -0.28188315, -110.83563995, -28.09136963, 34.69513702, 53.52236176, 36.77287292, -58.22858810, -66.22523499, 40.42466354, 126.63233948, 0.18433444, 0.48878193, 0.32809183, -0.78706354, 0.64258838, 0.65139955, -0.02501296, 0.00000000, 0.00000000, 0.00000000, 0.00000000
1, 0.8600, 291, 0.00585922, 0.04525741, -0.28188315, -110.83563995, -28.09136963, 34.69513702, 53.52236176, 36.77287292, -58.22858810, -66.41779327, 40.47589111, 126.76263428, 0.18235509, 0.48899195, 0.32973686, -0.78670651, 0.64326864, 0.65189517, -0.02243781, 0.00000000, 0.00000000, 0.00000000, 0.00000000
1, 0.8625, 292, 0.03029543, 0.05040161, -0.22075573, -110.82646942, -27.42639542, 45.26507950, 53.52236176, 36.77287292, -58.22858810, -66.60257721, 40.55234528, 126.90468597, 0.18019794, 0.48928598, 0.33126402, -0.78637910, 0.61984688, 0.64693320, -0.08097106, 0.00000000, 0.00000000, 0.00000000, 0.00000000
1, 0.8650, 293, 0.04384001, 0.05421945, -0.19090885, -111.47113800, -26.88619614, 50.17031479, 53.52236176, 36.77287292, -58.22858810, -66.78582764, 40.64094925, 127.05133057, 0.17795233, 0.48962370, 0.33274537, -0.78605479, 0.60747653, 0.64315212, -0.10818946, 0.00000000, 0.00000000, 0.00000000, 0.00000000
1, 0.8675, 294, 0.06079973, 0.05578688, -0.15731528, -112.40279388, -26.35417557, 55.42608261, 53.52236176, 36.83133698, -57.49780655, -66.96794128, 40.74250412, 127.20300293, 0.17560917, 0.49000862, 0.33418196, -0.78573251, 0.59186071, 0.64146829, -0.13911280, 0.00000000, 0.00000000, 0.00000000, 0.00000000
1, 0.8700, 295, 0.08152840, 0.05502437, -0.12290972, -112.90248108, -25.88846397, 60.74947739, 53.52236176, 36.83133698, -57.49780655, -67.14765167, 40.85713196, 127.35994720, 0.17317139, 0.49043825, 0.33556569, -0.78541559, 0.57264650, 0.64195240, -0.17082226, 0.00000000, 0.00000000, 0.00000000, 0.00000000
1, 0.8725, 296, 0.10651994, 0.05831815, -0.07843061, -113.25840759, -25.42140579, 66.07242584, 53.52236176, 36.83133698, -57.49780655, -67.32459259, 40.98486328, 127.52207947, 0.17064057, 0.49091223, 0.33689404, -0.78510481, 0.54933947, 0.63821512, -0.21258472, 0.00000000, 0.00000000, 0.00000000, 0.00000000
1, 0.8750, 297, 0.13602543, 0.06430170, -0.02279959, -113.61511230, -24.88291740, 71.25645447, 53.52236176, 36.83133698, -57.49780655, -67.49900055, 41.12543869, 127.68899536, 0.16801961, 0.49143052, 0.33816805, -0.78479809, 0.52168429, 0.63162553, -0.26547736, 0.00000000, 0.00000000, 0.00000000, 0.00000000
1, 0.8775, 298, 0.16785210, 0.07640113, 0.04440686, -113.39684296, -24.40170097, 76.01818848, 53.52236176, 36.83133698, -57.49780655, -67.66967773, 41.27786255, 127.86026001, 0.16532151, 0.49198702, 0.33938247, -0.78449816, 0.49185932, 0.61876082, -0.32994369, 0.00000000, 0.00000000, 0.00000000, 0.00000000
1, 0.8800, 299, 0.20040898, 0.09006704, 0.11407974, -112.24763489, -23.55897903, 80.36214447, 54.25314331, 35.19438553, -57.38088226, -67.83533478, 41.44151688, 128.03424072, 0.16256610, 0.49258131, 0.34052438, -0.78420603, 0.46144605, 0.60416955, -0.39689338, 0.00000000, 0.00000000, 0.00000000, 0.00000000
1, 0.8825, 300, 0.23380831, 0.09709844, 0.17509550, -110.02565765, -22.14349556, 84.15084076, 54.25314331, 35.19438553, -57.38088226, -67.99492645, 41.61564636, 128.20840454, 0.15977873, 0.49321556, 0.34157941, -0.78392142, 0.43032202, 0.59605515, -0.45521951, 0.00000000, 0.00000000, 0.00000000, 0.00000000
1, 0.8850, 301, 0.26257259, 0.09925838, 0.22272667, -106.87306213, -20.36320686, 87.31198883, 54.25314331, 35.19438553, -57.38088226, -68.14737701, 41.79911423, 128.38085938, 0.15698300, 0.49388817, 0.34253711, -0.78364480, 0.40394819, 0.59266061, -0.50021231, 0.00000000, 0.00000000, 0.00000000, 0.00000000
1, 0.8875, 302, 0.28888759, 0.09666257, 0.25819251, -103.36207581, -18.50592995, 90.19322968, 54.25314331, 35.19438553, -57.38088226, -68.29218292, 41.99133301, 128.55097961, 0.15418829, 0.49459755, 0.34339425, -0.78337711, 0.38013056, 0.59387422, -0.53310001, 0.00000000, 0.00000000, 0.00000000, 0.00000000
1, 0.8900, 303, 0.30912188, 0.08987910, 0.28358647, -99.99573517, -16.57746506, 92.86611176, 54.25314331, 35.19438553, -57.38088226, -68.43004608, 42.19186020, 128.71824646, 0.15139729, 0.49534410, 0.34415537, -0.78311568, 0.36249325, 0.59913534, -0.55596912, 0.00000000, 0.00000000, 0.00000000, 0.00000000
1, 0.8925, 304, 0.32618827, 0.08326811, 0.30446827, -96.48499298, -14.65424824, 95.95807648, 54.28237152, 34.87284470, -56.76702499, -68.56023407, 42.40161896, 128.88322449, 0.14860447, 0.49613070, 0.34481367, -0.78286308, 0.34813476, 0.60407013, -0.57438397, 0.00000000, 0.00000000, 0.00000000, 0.00000000
1, 0.8950, 305, 0.34470579, 0.07801070, 0.32573441, -93.12371826, -11.97734833, 99.48039246, 54.28237152, 34.87284470, -56.76702499, -68.68437958, 42.62229919, 129.04403687, 0.14580670, 0.49697420, 0.34536472, -0.78261125, 0.33245650, 0.60748643, -0.59321433, 0.00000000, 0.00000000, 0.00000000, 0.00000000
1, 0.8975, 306, 0.36802354, 0.07600150, 0.33628708, -89.61914825, -9.23097038, 103.07312775, 54.28237152, 34.87284470, -56.76702499, -68.80222321, 42.85408020, 129.20051575, 0.14300497, 0.49787605, 0.34580511, -0.78236043, 0.31210980, 0.60748446, -0.60136360, 0.00000000, 0.00000000, 0.00000000, 0.00000000
1, 0.9000, 307, 0.39433345, 0.07900792, 0.34092271, -85.75193787, -6.89446211, 106.51923370, 54.28237152, 34.87284470, -56.76702499, -68.91213226, 43.09623718, 129.35377502, 0.14020276, 0.49882731, 0.34613174, -0.78211725, 0.28889218, 0.60229719, -0.60365105, 0.00000000, 0.00000000, 0.00000000, 0.00000000
1, 0.9025, 308, 0.42074433, 0.08512589, 0.34291747, -81.74195862, -4.48297930, 109.68613434, 54.28237152, 34.87284470, -56.76702499, -69.03078461, 43.35971451, 129.49317932, 0.13734181, 0.49993807, 0.34636265, -0.78181338, 0.26583204, 0.59378093, -0.60310733, 0.00000000, 0.00000000, 0.00000000, 0.00000000
1, 0.9050, 309, 0.44619459, 0.08877939, 0.34499866, -77.44345856, -2.26883411, 112.35981750, 55.15930939, 34.11283112, -56.91318130, -69.12420654, 43.62007523, 129.63874817, 0.13456291, 0.50097823, 0.34646329, -0.78158611, 0.24367845, 0.58762860, -0.60296667, 0.00000000, 0.00000000, 0.00000000, 0.00000000
1, 0.9075, 310, 0.47394401, 0.08652350, 0.33977497, -73.06900024, -0.60242510, 114.67613983, 55.15930939, 34.11283112, -56.91318130, -69.20791626, 43.88748550, 129.78184509, 0.13180377, 0.50204712, 0.34645614, -0.78137368, 0.21930021, 0.58724326, -0.59560883, 0.00000000, 0.00000000, 0.00000000, 0.00000000
1, 0.9100, 311, 0.49826291, 0.08585352, 0.32566223, -68.90921021, 0.86194670, 116.50085449, 55.15930939, 34.11283112, -56.91318130, -69.28237915, 44.16060257, 129.92259216, 0.12906896, 0.50313830, 0.34635076, -0.78117484, 0.19840875, 0.58514655, -0.57944822, 0.00000000, 0.00000000, 0.00000000, 0.00000000
1, 0.9125, 312, 0.51663166, 0.08265464, 0.30590183, -65.03276062, 1.77412629, 118.03921509, 55.15930939, 34.11283112, -56.91318130, -69.34729004, 44.43823242, 130.06243896, 0.12635627, 0.50424141, 0.34615690, -0.78099298, 0.18350813, 0.58546567, -0.55773377, 0.00000000, 0.00000000, 0.00000000, 0.00000000
1, 0.9150, 313, 0.53294694, 0.07917430, 0.28797430, -61.79809952, 2.12086892, 119.92173767, 55.15930939, 34.11283112, -56.91318130, -69.40261078, 44.72069168, 130.20373535, 0.12364863, 0.50535136, 0.34588325, -0.78083020, 0.17070425, 0.58594990, -0.53794384, 0.00000000, 0.00000000, 0.00000000, 0.00000000
1, 0.9175, 314, 0.54427844, 0.08033094, 0.27086118, -59.13759232, 2.38970804, 122.01489258, 55.33469772, 32.88512039, -55.65623856, -69.44932556, 45.00837708, 130.34707642, 0.12093560, 0.50647008, 0.34553748, -0.78068328, 0.16293153, 0.58168030, -0.51904494, 0.00000000, 0.00000000, 0.00000000, 0.00000000
1, 0.9200, 315, 0.55743462, 0.08413581, 0.25830612, -57.11961746, 2.10079932, 123.96269989, 55.33469772, 32.88512039, -55.65623856, -69.48778534, 45.30043411, 130.49424744, 0.11820846, 0.50758874, 0.34513357, -0.78055316, 0.15336996, 0.57465696, -0.50477910, 0.00000000, 0.00000000, 0.00000000, 0.00000000
1, 0.9225, 316, 0.57255214, 0.08313539, 0.24713989, -55.53414536, 1.88369131, 125.49326324, 55.33469772, 32.88512039, -55.65623856, -69.51952362, 45.59595108, 130.64454651, 0.11547013, 0.50870669, 0.34468320, -0.78043431, 0.14187092, 0.57235068, -0.49196190, 0.00000000, 0.00000000, 0.00000000, 0.00000000
1, 0.9250, 317, 0.58743078, 0.08066586, 0.23546284, -54.30625153, 1.45441473, 127.09204865, 55.33469772, 32.88512039, -55.65623856, -69.54474640, 45.89488983, 130.79887390, 0.11271393, 0.50982159, 0.34419215, -0.78032643, 0.13063329, 0.57142657, -0.47869030, 0.00000000, 0.00000000, 0.00000000, 0.00000000
1, 0.9275, 318, 0.60499537, 0.07922116, 0.23039466, -53.36634445, 1.09059203, 128.76258850, 55.33469772, 32.88512039, -55.65623856, -69.56417847, 46.19746399, 130.95719910, 0.10993598, 0.51093596, 0.34366423, -0.78022665, 0.11673406, 0.56939125, -0.47207353, 0.00000000, 0.00000000, 0.00000000, 0.00000000
1, 0.9300, 319, 0.62413615, 0.07826676, 0.22594175, -52.06567001, 0.58945334, 130.57000732, 56.59164047, 32.30049515, -55.51008606, -69.57633972, 46.50387573, 131.12028503, 0.10713696, 0.51204735, 0.34309199, -0.78013915, 0.10128456, 0.56677061, -0.46613255, 0.00000000, 0.00000000, 0.00000000, 0.00000000
1, 0.9325, 320, 0.64410138, 0.08104878, 0.21836720, -50.54971313, 0.15736996, 132.51751709, 56.59164047, 32.30049515, -55.51008606, -69.58061218, 46.81447983, 131.28817749, 0.10431749, 0.51315761, 0.34246999, -0.78006506, 0.08504003, 0.56031162, -0.45713443, 0.00000000, 0.00000000, 0.00000000, 0.00000000
1, 0.9350, 321, 0.66467613, 0.08236564, 0.21028019, -49.17506409, -0.61785030, 134.18107605, 56.59164047, 32.30049515, -55.51008606, -69.57661438, 47.12831116, 131.46182251, 0.10147830, 0.51425910, 0.34180441, -0.78000611, 0.06820285, 0.55522561, -0.44769487, 0.00000000, 0.00000000, 0.00000000, 0.00000000
1, 0.9375, 322, 0.68272579, 0.08443549, 0.20893075, -47.86800003, -1.94434655, 135.62754822, 56.59164047, 32.30049515, -55.51008606, -69.56315613, 47.44435501, 131.64302063, 0.09861826, 0.51534081, 0.34109995, -0.77996731, 0.05389497, 0.54930222, -0.44508004, 0.00000000, 0.00000000, 0.00000000, 0.00000000
1, 0.9400, 323, 0.69788611, 0.08289785, 0.20960934, -46.56371307, -2.92575359, 137.14866638, 56.59164047, 32.30049515, -55.51008606, -69.54085541, 47.76307678, 131.83082581, 0.09573875, 0.51640928, 0.34035492, -0.77994490, 0.04248524, 0.54689914, -0.44456929, 0.00000000, 0.00000000, 0.00000000, 0.00000000
1, 0.9425, 324, 0.70965660, 0.08241759, 0.21263282, -45.18739319, -3.97133279, 138.38891602, 56.59164047, 32.30049515, -55.59777832, -69.50948334, 48.08370972, 132.02531433, 0.09284490, 0.51746106, 0.33957130, -0.77993923, 0.03446484, 0.54335964, -0.44648361, 0.00000000, 0.00000000, 0.00000000, 0.00000000
1, 0.9450, 325, 0.71838713, 0.08329432, 0.21433912, -43.73976898, -4.94700289, 139.62986755, 57.08856964, 29.55276108, -55.59777832, -69.46884155, 48.40631866, 132.22636414, 0.08993811, 0.51849723, 0.33874753, -0.77994990, 0.02948397, 0.53838319, -0.44716054, 0.00000000, 0.00000000, 0.00000000, 0.00000000
1, 0.9475, 326, 0.72329342, 0.09301689, 0.24111697, -42.50721741, -5.99392462, 140.87055969, 57.08856964, 29.55276108, -55.59777832, -69.41910553, 48.73080444, 132.43444824, 0.08701549, 0.51951700, 0.33788735, -0.77997595, 0.02832526, 0.52448320, -0.47298539, 0.00000000, 0.00000000, 0.00000000, 0.00000000
1, 0.9500, 327, 0.73523331, 0.10191186, 0.26786777, -42.20886612, -7.11551762, 141.90348816, 57.08856964, 29.55276108, -55.59777832, -69.36243439, 49.05659866, 132.64968872, 0.08406952, 0.52051944, 0.33700901, -0.78001082, 0.02012378, 0.51134920, -0.49883685, 0.00000000, 0.00000000, 0.00000000, 0.00000000
1, 0.9525, 328, 0.74779969, 0.10357881, 0.29304019, -41.76724625, -7.97749186, 144.12843323, 57.08856964, 29.55276108, -55.59777832, -69.31417084, 49.40361023, 132.86151123, 0.08099668, 0.52164954, 0.33607912, -0.77998215, 0.01151240, 0.50519639, -0.52290541, 0.00000000, 0.00000000, 0.00000000, 0.00000000
1, 0.9550, 329, 0.74779969, 0.10357881, 0.29304019, -41.76724625, -7.97749186, 144.12843323, 57.08856964, 29.55276108, -55.59777832, -69.24707794, 49.73356628, 133.08683777, 0.07800986, 0.52264154, 0.33516189, -0.78001720, 0.01524723, 0.50082767, -0.52206486, 0.00000000, 0.00000000, 0.00000000, 0.00000000
1, 0.9575, 330, 0.76863837, 0.08820354, 0.30901441, -32.69957352, -8.82483482, 146.11558533, 58.08243179, 28.06196976, -55.30546570, -69.15027618, 50.06719971, 133.32026672, 0.07508558, 0.52361262, 0.33406556, -0.78012323, -0.00184077, 0.51165265, -0.53747463, 0.00000000, 0.00000000, 0.00000000, 0.00000000
1, 0.9600, 331, 0.76863837, 0.08820354, 0.30901441, -32.69957352, -8.82483482, 146.11558533, 58.08243179, 28.06196976, -55.30546570, -69.05066681, 50.40058517, 133.55619812, 0.07216050, 0.52457809, 0.33296561, -0.78022093, 0.00188119, 0.50707757, -0.53691804, 0.00000000, 0.00000000, 0.00000000, 0.00000000
1, 0.9625, 332, 0.76103753, 0.05784771, 0.32310674, -25.57905388, -8.92869186, 148.11914062, 58.08243179, 28.06196976, -55.30546570, -68.92781830, 50.73826599, 133.79804993, 0.06928128, 0.52553958, 0.33171815, -0.78036630, 0.01322541, 0.53269571, -0.55064946, 0.00000000, 0.00000000, 0.00000000, 0.00000000
1, 0.9650, 333, 0.75329649, 0.05519917, 0.32528159, -22.42329979, -7.75067139, 149.94323730, 58.08243179, 28.06196976, -55.30546570, -68.79524231, 51.08090973, 134.04109192, 0.06641494, 0.52652377, 0.33039060, -0.78051513, 0.02473718, 0.53048867, -0.55251116, 0.00000000, 0.00000000, 0.00000000, 0.00000000
1, 0.9675, 334, 0.75008577, 0.06487396, 0.31822664, -19.77494621, -5.96409941, 152.40673828, 58.08243179, 28.06196976, -55.30546570, -68.65506744, 51.43055344, 134.28419495, 0.06354924, 0.52754647, 0.32898346, -0.78065759, 0.03176707, 0.51582330, -0.54515612, 0.00000000, 0.00000000, 0.00000000, 0.00000000
1, 0.9700, 335, 0.76137286, 0.08402022, 0.30688787, -18.06278229, -3.97854304, 154.87594604, 57.58549881, 25.84039688, -55.18854141, -68.51009369, 51.78736877, 134.52676392, 0.06067470, 0.52861220, 0.32751217, -0.78078389, 0.02434748, 0.49155900, -0.53349769, 0.00000000, 0.00000000, 0.00000000, 0.00000000
1, 0.9725, 336, 0.78125769, 0.10578598, 0.29569381, -17.49794579, -2.34881973, 157.27416992, 57.58549881, 25.84039688, -55.18854141, -68.36210632, 52.15089035, 134.77018738, 0.05777676, 0.52971601, 0.32599762, -0.78088951, 0.00837148, 0.46456099, -0.52194703, 0.00000000, 0.00000000, 0.00000000, 0.00000000
1, 0.9750, 337, 0.80444026, 0.12334636, 0.28736135, -17.50587463, -1.12780941, 158.89936829, 57.58549881, 25.84039688, -55.18854141, -68.21208191, 52.51890945, 135.01498413, 0.05485903, 0.53084576, 0.32445896, -0.78097355, -0.01088625, 0.44168469, -0.51321971, 0.00000000, 0.00000000, 0.00000000, 0.00000000
1, 0.9775, 338, 0.82571536, 0.13386230, 0.28100231, -17.51324654, -0.10242858, 159.75259399, 57.58549881, 25.84039688, -55.18854141, -68.06028748, 52.88946915, 135.26081848, 0.05193326, 0.53199255, 0.32290533, -0.78103715, -0.02824252, 0.42579597, -0.50643450, 0.00000000, 0.00000000, 0.00000000, 0.00000000
1, 0.9800, 339, 0.84687036, 0.14025430, 0.27067003, -17.08755493, 0.65552437, 160.25103760, 57.58549881, 25.84039688, -55.18854141, -67.90517426, 53.26149368, 135.50830078, 0.04900864, 0.53314871, 0.32133386, -0.78108591, -0.04549677, 0.41398215, -0.49566406, 0.00000000, 0.00000000, 0.00000000, 0.00000000
1, 0.9825, 340, 0.86598754, 0.14084952, 0.26098642, -15.79535389, 0.93796933, 160.67028809, 58.22858810, 23.76498032, -54.69160843, -67.74308014, 53.63433075, 135.75923157, 0.04609328, 0.53430462, 0.31973124, -0.78113133, -0.06073843, 0.40791041, -0.48556769, 0.00000000, 0.00000000, 0.00000000, 0.00000000
1, 0.9850, 341, 0.88232225, 0.14213619, 0.25364083, -13.34868813, 0.74319899, 161.28912354, 58.22858810, 23.76498032, -54.69160843, -67.56917572, 54.00798035, 136.01600647, 0.04319396, 0.53545231, 0.31807587, -0.78118682, -0.07322359, 0.40107378, -0.47787800, 0.00000000, 0.00000000, 0.00000000, 0.00000000
1, 0.9875, 342, 0.89596516, 0.15029687, 0.24616154, -9.89363480, 0.34682164, 162.11172485, 58.22858810, 23.76498032, -54.69160843, -67.37977600, 54.38265991, 136.28004456, 0.04031770, 0.53658909, 0.31634843, -0.78126204, -0.08304077, 0.38727319, -0.47015324, 0.00000000, 0.00000000, 0.00000000, 0.00000000
1, 0.9900, 343, 0.90747893, 0.16793330, 0.22868934, -5.50223780, -0.31338373, 162.64794922, 58.22858810, 23.76498032, -54.69160843, -67.17173004, 54.75741577, 136.55226135, 0.03747863, 0.53770769, 0.31453645, -0.78136587, -0.09076285, 0.36390793, -0.45256388, 0.00000000, 0.00000000, 0.00000000, 0.00000000
1, 0.9925, 344, 0.91775429, 0.18918402, 0.20736468, -1.82745695, -1.25615466, 163.11271667, 58.22858810, 23.76498032, -54.69160843, -66.94564819, 55.13172531, 136.83401489, 0.03466781, 0.53880370, 0.31265318, -0.78149647, -0.09728593, 0.33684903, -0.43124181, 0.00000000, 0.00000000, 0.00000000, 0.00000000
1, 0.9950, 345, 0.92707241, 0.20759289, 0.18673165, 0.70292228, -2.96469188, 163.15124512, 58.40397644, 22.15726280, -54.75007248, -66.70207977, 55.50377655, 137.12808228, 0.03187399, 0.53986210, 0.31072366, -0.78165454, -0.10290909, 0.31257933, -0.41073108, 0.00000000, 0.00000000, 0.00000000, 0.00000000
1, 0.9975, 346, 0.93837178, 0.21942015, 0.17137051, 2.23240638, -5.37170887, 162.97372437, 58.40397644, 22.15726280, -54.75007248, -66.44107056, 55.87227249, 137.43731689, 0.02908449, 0.54087031, 0.30876791, -0.78184134, -0.11058310, 0.29485679, -0.39561403, 0.00000000, 0.00000000, 0.00000000, 0.00000000
1, 1.0000, 347, 0.94704181, 0.22611575, 0.16155726, 2.89704847, -7.57357788, 162.45210266, 58.40397644, 22.15726280, -54.75007248, -66.16559601, 56.23655319, 137.76066589, 0.02629652, 0.54183024, 0.30680445, -0.78204834, -0.11570284, 0.28225255, -0.38613948, 0.00000000, 0.00000000, 0.00000000, 0.00000000
1, 1.0025, 348, 0.95296180, 0.22682920, 0.15654597, 2.91275048, -9.63422585, 161.37500000, 58.40397644, 22.15726280, -54.75007248, -65.89324188, 56.60956955, 138.08525085, 0.02344811, 0.54284889, 0.30483568, -0.78220236, -0.11802220, 0.27551463, -0.38132656, 0.00000000, 0.00000000, 0.00000000, 0.00000000
1, 1.0050, 349, 0.95732170, 0.22674398, 0.15531376, 3.14200330, -11.41810894, 160.44084167, 58.40397644, 22.15726280, -54.75007248, -65.59394073, 56.96353531, 138.43359375, 0.02067133, 0.54371607, 0.30288595, -0.78243583, -0.11899811, 0.26971233, -0.38057983, 0.00000000, 0.00000000, 0.00000000, 0.00000000
1, 1.0075, 350, 0.96289992, 0.22627661, 0.15541737, 3.15247130, -12.79187489, 159.72279358, 58.14089203, 19.58491707, -53.55159378, -65.28410339, 57.31341553, 138.79309082, 0.01789761, 0.54454833, 0.30094141, -0.78267556, -0.12126285, 0.26429456, -0.38122007, 0.00000000, 0.00000000, 0.00000000, 0.00000000
1, 1.0100, 351, 0.96861798, 0.22718744, 0.16238487, 3.37497354, -13.68335533, 159.29031372, 58.14089203, 19.58491707, -53.55159378, -64.96415710, 57.66032028, 139.16249084, 0.01512783, 0.54535586, 0.29899490, -0.78291774, -0.12372661, 0.25748956, -0.38876295, 0.00000000, 0.00000000, 0.00000000, 0.00000000
1, 1.0125, 352, 0.97774130, 0.22673601, 0.17115748, 3.80929685, -14.09035873, 159.00361633, 58.14089203, 19.58491707, -53.55159378, -64.63483429, 58.00498581, 139.54028320, 0.01236529, 0.54614782, 0.29704091, -0.78315806, -0.12964728, 0.25203046, -0.39813614, 0.00000000, 0.00000000, 0.00000000, 0.00000000
1, 1.0150, 353, 0.98518175, 0.22452295, 0.18222833, 4.74617052, -14.35967827, 159.06686401, 58.14089203, 19.58491707, -53.55159378, -64.29455566, 58.34833145, 139.92678833, 0.00961093, 0.54692870, 0.29506660, -0.78339803, -0.13392791, 0.24829921, -0.40983796, 0.00000000, 0.00000000, 0.00000000, 0.00000000
1, 1.0175, 354, 0.99491090, 0.22976948, 0.19683021, 6.25463772, -14.20820141, 159.13392639, 58.14089203, 19.58491707, -53.55159378, -63.94312668, 58.69075775, 140.32054138, 0.00687429, 0.54770559, 0.29306206, -0.78363639, -0.14053607, 0.23706888, -0.42509663, 0.00000000, 0.00000000, 0.00000000, 0.00000000
1, 1.0200, 355, 1.00387001, 0.24269733, 0.20702997, 8.19093323, -13.63727093, 159.20529175, 59.07629395, 17.71411896, -53.78544235, -63.58077240, 59.03268814, 140.71995544, 0.00416312, 0.54848576, 0.29101995, -0.78387082, -0.14640915, 0.21811357, -0.43597150, 0.00000000, 0.00000000, 0.00000000, 0.00000000
1, 1.0225, 356, 1.01172268, 0.25798494, 0.21519077, 10.19868660, -13.06127357, 158.99668884, 59.07629395, 17.71411896, -53.78544235, -63.20762253, 59.37346268, 141.12466431, 0.00148316, 0.54926759, 0.28894240, -0.78410155, -0.15121669, 0.19676471, -0.44482559, 0.00000000, 0.00000000, 0.00000000, 0.00000000
1, 1.0250, 357, 1.01558852, 0.27307886, 0.22702268, 11.84722519, -12.61722183, 158.15806580, 59.07629395, 17.71411896, -53.78544235, -62.82512665, 59.71151352, 141.53404236, -0.00115992, 0.55004513, 0.28684318, -0.78432786, -0.15209177, 0.17560327, -0.45736548, 0.00000000, 0.00000000, 0.00000000, 0.00000000
1, 1.0275, 358, 1.02134180, 0.27639014, 0.24673538, 12.55762959, -11.76427746, 157.18814087, 59.07629395, 17.71411896, -53.78544235, -62.43732834, 60.04696655, 141.94607544, -0.00377253, 0.55082452, 0.28474003, -0.78453892, -0.15490702, 0.16623312, -0.47776648, 0.00000000, 0.00000000, 0.00000000, 0.00000000
1, 1.0300, 359, 1.02858937, 0.26949278, 0.26726630, 12.68868732, -10.36610031, 156.43733215, 59.07629395, 17.71411896, -53.78544235, -62.04730988, 60.38100433, 142.35890198, -0.00636199, 0.55161667, 0.28264037, -0.78472477, -0.15925843, 0.16707835, -0.49893329, 0.00000000, 0.00000000, 0.00000000, 0.00000000
1, 1.0325, 360, 1.03413880, 0.26513562, 0.29016137, 12.96079254, -8.55884457, 156.18119812, 58.49166870, 15.49254608, -53.46389771, -61.65529251, 60.71517181, 142.77189636, -0.00893256, 0.55243176, 0.28053612, -0.78488141, -0.16194016, 0.16537032, -0.52239865, 0.00000000, 0.00000000, 0.00000000, 0.00000000
1, 1.0350, 361, 1.03989172, 0.26699460, 0.30826327, 13.94878960, -6.33494043, 156.27806091, 58.49166870, 15.49254608, -53.46389771, -61.26028061, 61.05083466, 143.18412781, -0.01147917, 0.55327928, 0.27841088, -0.78500807, -0.16484243, 0.15741262, -0.54100215, 0.00000000, 0.00000000, 0.00000000, 0.00000000
1, 1.0375, 362, 1.04974544, 0.27453011, 0.32619926, 15.65487289, -3.97024131, 156.65425110, 58.49166870, 15.49254608, -53.46389771, -60.86034775, 61.38875580, 143.59577942, -0.01399714, 0.55416352, 0.27624926, -0.78510725, -0.17185661, 0.14372703, -0.55937779, 0.00000000, 0.00000000, 0.00000000, 0.00000000
1, 1.0400, 363, 1.06310284, 0.28031126, 0.33896896, 17.79267311, -1.60590696, 157.30877686, 58.49166870, 15.49254608, -53.46389771, -60.45358276, 61.72959900, 144.00778198, -0.01648605, 0.55508614, 0.27404049, -0.78518111, -0.18238086, 0.13172922, -0.57253134, 0.00000000, 0.00000000, 0.00000000, 0.00000000
1, 1.0425, 364, 1.08263874, 0.28419814, 0.34864205, 20.57766724, 0.69852817, 157.75054932, 58.49166870, 15.49254608, -53.46389771, -60.03841400, 62.07284927, 144.42010498, -0.01893483, 0.55604529, 0.27177626, -0.78523421, -0.19909513, 0.12156066, -0.58254462, 0.00000000, 0.00000000, 0.00000000, 0.00000000
1, 1.0450, 365, 1.10226655, 0.28917307, 0.35099977, 24.15523529, 2.73779273, 157.90641785, 57.67319489, 13.00789261, -53.14235687, -59.61219025, 62.41755676, 144.83348083, -0.02133055, 0.55703509, 0.26944640, -0.78527433, -0.21592119, 0.11024179, -0.58522099, 0.00000000, 0.00000000, 0.00000000, 0.00000000
1, 1.0475, 366, 1.13096941, 0.31025690, 0.33012360, 28.66899681, 4.57807446, 158.05648804, 57.67319489, 13.00789261, -53.14235687, -59.17153931, 62.76348495, 145.24913025, -0.02366292, 0.55805254, 0.26703492, -0.78530878, -0.24184477, 0.08274247, -0.56466323, 0.00000000, 0.00000000, 0.00000000, 0.00000000
1, 1.0500, 367, 1.14201343, 0.35788345, 0.31298929, 32.89177322, 6.83109474, 158.21310425, 57.67319489, 13.00789261, -53.14235687, -58.71857452, 63.11115265, 145.66545105, -0.02593314, 0.55910480, 0.26454702, -0.78533059, -0.25012803, 0.02863166, -0.54782271, 0.00000000, 0.00000000, 0.00000000, 0.00000000
1, 1.0525, 368, 1.14201343, 0.35788345, 0.31298929, 32.89177322, 6.83109474, 158.21310425, 57.67319489, 13.00789261, -53.14235687, -58.27634048, 63.46554565, 146.07479858, -0.02822374, 0.56023210, 0.26208356, -0.78527421, -0.24734771, 0.02210784, -0.54789370, 0.00000000, 0.00000000, 0.00000000, 0.00000000
1, 1.0550, 369, 1.15937316, 0.38380244, 0.27693567, 39.04334641, 10.23860741, 156.56062317, 57.67319489, 13.00789261, -53.14235687, -57.80449677, 63.81115341, 146.49244690, -0.03037001, 0.56132329, 0.25950584, -0.78527105, -0.26202911, -0.01033240, -0.51208162, 0.00000000, 0.00000000, 0.00000000, 0.00000000
1, 1.0575, 370, 1.15937316, 0.38380244, 0.27693567, 39.04334641, 10.23860741, 156.56062317, 57.73165512, 10.81555080, -52.49926758, -57.32103729, 64.15522003, 146.92181396, -0.03251590, 0.56240743, 0.25692490, -0.78525817, -0.25939500, -0.01687214, -0.51231086, 0.00000000, 0.00000000, 0.00000000, 0.00000000
1, 1.0600, 371, 1.18854606, 0.39064524, 0.27209282, 39.46047974, 11.59110641, 154.47941589, 57.73165512, 10.81555080, -52.49926758, -56.83637238, 64.49515533, 147.35011292, -0.03461304, 0.56349647, 0.25436008, -0.78522265, -0.28599733, -0.03019530, -0.50763816, 0.00000000, 0.00000000, 0.00000000, 0.00000000
1, 1.0625, 372, 1.20291603, 0.40244448, 0.26833370, 40.31559372, 12.30911350, 153.36732483, 57.73165512, 10.81555080, -52.49926758, -56.34394073, 64.83216095, 147.78343201, -0.03667621, 0.56458545, 0.25179178, -0.78517449, -0.29785031, -0.04845721, -0.50402200, 0.00000000, 0.00000000, 0.00000000, 0.00000000
1, 1.0650, 373, 1.22404754, 0.41571599, 0.25835121, 41.31320572, 13.16804028, 152.18672180, 57.73165512, 10.81555080, -52.49926758, -55.84412384, 65.16629791, 148.22096252, -0.03870171, 0.56567675, 0.24921863, -0.78511286, -0.31651717, -0.06817184, -0.49415123, 0.00000000, 0.00000000, 0.00000000, 0.00000000
1, 1.0675, 374, 1.24967575, 0.42920384, 0.25190651, 42.59975052, 13.82523632, 150.79263306, 57.73165512, 10.81555080, -52.49926758, -55.33586502, 65.49684906, 148.66307068, -0.04068343, 0.56676608, 0.24663824, -0.78504193, -0.33973747, -0.08807714, -0.48779833, 0.00000000, 0.00000000, 0.00000000, 0.00000000
1, 1.0700, 375, 1.27737153, 0.44557992, 0.25051194, 44.10266876, 14.35036278, 149.11628723, 56.59164047, 9.32475853, -51.44694519, -54.81885529, 65.82304382, 149.10949707, -0.04261454, 0.56784999, 0.24405040, -0.78496486, -0.36508679, -0.11083528, -0.48648354, 0.00000000, 0.00000000, 0.00000000, 0.00000000
1, 1.0725, 376, 1.30798912, 0.45913219, 0.24980135, 44.95592499, 15.15079212, 147.16601562, 56.59164047, 9.32475853, -51.44694519, -54.29689026, 66.14476013, 149.55789185, -0.04449695, 0.56893158, 0.24147007, -0.78487533, -0.39341927, -0.13071594, -0.48581970, 0.00000000, 0.00000000, 0.00000000, 0.00000000
1, 1.0750, 377, 1.34236729, 0.47099519, 0.24807955, 45.01899338, 15.81195164, 144.79679871, 56.59164047, 9.32475853, -51.44694519, -53.77286148, 66.46093750, 150.00726318, -0.04633401, 0.57000566, 0.23891595, -0.78477126, -0.42557943, -0.14882776, -0.48410505, 0.00000000, 0.00000000, 0.00000000, 0.00000000
1, 1.0775, 378, 1.38063788, 0.48051834, 0.24790259, 45.22697830, 16.33597946, 142.42527771, 56.59164047, 9.32475853, -51.44694519, -53.24603271, 66.77150726, 150.45803833, -0.04812465, 0.57107037, 0.23638572, -0.78465563, -0.46169871, -0.16452068, -0.48390347, 0.00000000, 0.00000000, 0.00000000, 0.00000000
1, 1.0800, 379, 1.42412567, 0.49162194, 0.25067186, 45.57913589, 16.73056221, 139.56192017, 56.59164047, 9.32475853, -51.44694519, -52.71741867, 67.07527161, 150.90876770, -0.04985934, 0.57212138, 0.23388302, -0.78453159, -0.50310856, -0.18169588, -0.48662356, 0.00000000, 0.00000000, 0.00000000, 0.00000000
1, 1.0825, 380, 1.46460342, 0.50383973, 0.26055181, 46.36457062, 16.85552216, 136.48368835, 56.21163177, 8.18474102, -51.65156174, -52.18582535, 67.37148285, 151.35961914, -0.05153039, 0.57315385, 0.23140308, -0.78440547, -0.54158479, -0.19988173, -0.49644643, 0.00000000, 0.00000000, 0.00000000, 0.00000000
1, 1.0850, 381, 1.50871563, 0.52092838, 0.27489799, 48.01378250, 16.78631783, 133.05030823, 56.21163177, 8.18474102, -51.65156174, -51.64993286, 67.65917969, 151.80967712, -0.05312191, 0.57416403, 0.22893548, -0.78428459, -0.58377665, -0.22282863, -0.51074642, 0.00000000, 0.00000000, 0.00000000, 0.00000000
1, 1.0875, 382, 1.54966569, 0.54398155, 0.29239687, 50.73920822, 16.87444687, 129.05599976, 56.21163177, 8.18474102, -51.65156174, -51.11042404, 67.93758392, 152.25538635, -0.05461000, 0.57515347, 0.22646922, -0.78417343, -0.62289059, -0.25161752, -0.52821726, 0.00000000, 0.00000000, 0.00000000, 0.00000000
1, 1.0900, 383, 1.59424543, 0.55920494, 0.29974830, 54.68786240, 16.70802879, 124.35484314, 56.21163177, 8.18474102, -51.65156174, -50.56647491, 68.20501709, 152.69436646, -0.05596845, 0.57611632, 0.22399215, -0.78408235, -0.66572738, -0.27243713, -0.53558350, 0.00000000, 0.00000000, 0.00000000, 0.00000000
1, 1.0925, 384, 1.63433754, 0.56702793, 0.29868615, 59.50710678, 15.51769447, 119.21733093, 56.21163177, 8.18474102, -51.65156174, -50.01353073, 68.45907593, 153.12928772, -0.05718377, 0.57703447, 0.22149380, -0.78402919, -0.70418215, -0.28570676, -0.53462958, 0.00000000, 0.00000000, 0.00000000, 0.00000000
1, 1.0950, 385, 1.66449249, 0.57297665, 0.29651591, 64.03955841, 14.19059372, 113.79912567, 54.80853653, 6.72318029, -50.59923935, -49.45371628, 68.69908905, 153.55865479, -0.05825529, 0.57790458, 0.21898258, -0.78401476, -0.73280716, -0.29693744, -0.53266180, 0.00000000, 0.00000000, 0.00000000, 0.00000000
1, 1.0975, 386, 1.68240976, 0.57448524, 0.29137003, 68.06663513, 13.13464451, 108.45619965, 54.80853653, 6.72318029, -50.59923935, -48.89032364, 68.92572784, 153.98037720, -0.05918923, 0.57873166, 0.21646680, -0.78403354, -0.74929494, -0.30356023, -0.52779388, 0.00000000, 0.00000000, 0.00000000, 0.00000000
1, 1.1000, 387, 1.69159234, 0.57404387, 0.28217968, 71.73200226, 12.35228825, 103.11816406, 54.80853653, 6.72318029, -50.59923935, -48.32664490, 69.13956451, 154.39198303, -0.05998880, 0.57952029, 0.21395296, -0.78408009, -0.75714213, -0.30806080, -0.51894033, 0.00000000, 0.00000000, 0.00000000, 0.00000000
1, 1.1025, 388, 1.69240499, 0.57698071, 0.27476892, 75.10700989, 11.97607803, 98.20622253, 54.80853653, 6.72318029, -50.59923935, -47.77481461, 69.34440613, 154.78321838, -0.06066159, 0.58030444, 0.21145800, -0.78412527, -0.75668740, -0.31576595, -0.51183349, 0.00000000, 0.00000000, 0.00000000, 0.00000000
