SensorId, TimeStamp (s), FrameNumber, AccX (g), AccY (g), AccZ (g), GyroX (deg/s), GyroY (deg/s), GyroZ (deg/s), MagX (uT), MagY (uT), MagZ (uT), EulerX (deg), EulerY (deg), EulerZ (deg), QuatW, QuatX, QuatY, QuatZ, LinAccX (g), LinAccY (g), LinAccZ (g), Pressure (kPa), Altitude (m), Temperature (degC), HeaveMotion (m)
1, 0.0000, 0, 0.61273593, 0.79037404, -0.12642621, -0.14176409, 1.47438776, -1.01006722, 54.66238022, 37.73750305, -59.54399109, -82.02014160, 36.41877747, 148.24168396, -0.00110405, 0.39735466, 0.53502607, -0.74555695, -0.01905346, 0.00653350, 0.01471341, 0.00000000, 0.00000000, 0.00000000, 0.00000000
1, 0.0025, 1, 0.60400742, 0.79021573, -0.12677735, 0.50397301, 1.68265104, -0.65965319, 54.66238022, 37.73750305, -59.54399109, -82.02213287, 36.41773224, 148.23622131, -0.00106931, 0.39737433, 0.53502363, -0.74554825, -0.01033968, 0.00670624, 0.01509073, 0.00000000, 0.00000000, 0.00000000, 0.00000000
1, 0.0050, 2, 0.60242599, 0.79144269, -0.12712193, 1.14981663, 1.88981545, -0.23931456, 54.39929962, 37.94212341, -59.10552216, -82.02277374, 36.41778946, 148.23030090, -0.00103339, 0.39740235, 0.53500712, -0.74554533, -0.00875741, 0.00547993, 0.01544430, 0.00000000, 0.00000000, 0.00000000, 0.00000000
1, 0.0075, 3, 0.60242599, 0.79144269, -0.12712193, 1.14981663, 1.88981545, -0.23931456, 54.39929962, 37.94212341, -59.10552216, -82.02340698, 36.41785431, 148.22439575, -0.00099747, 0.39743030, 0.53499055, -0.74554235, -0.00875652, 0.00548053, 0.01545328, 0.00000000, 0.00000000, 0.00000000, 0.00000000
1, 0.0100, 4, 0.60997289, 0.78601927, -0.12367667, 2.66688943, 1.06647420, 0.16420279, 54.39929962, 37.94212341, -59.10552216, -82.01864624, 36.41862869, 148.22117615, -0.00096457, 0.39744961, 0.53494573, -0.74556422, -0.01629251, 0.01088667, 0.01194289, 0.00000000, 0.00000000, 0.00000000, 0.00000000
1, 0.0125, 5, 0.60997289, 0.78601927, -0.12367667, 2.66688943, 1.06647420, 0.16420279, 54.39929962, 37.94212341, -59.10552216, -82.01387787, 36.41940308, 148.21797180, -0.00093167, 0.39746892, 0.53490090, -0.74558610, -0.01628160, 0.01086944, 0.01187772, 0.00000000, 0.00000000, 0.00000000, 0.00000000
1, 0.0150, 6, 0.60918754, 0.77824724, -0.11340727, 4.68284035, 0.79843807, 0.78343970, 54.39929962, 37.94212341, -59.10552216, -82.00343323, 36.42163086, 148.21585083, -0.00089449, 0.39749116, 0.53481793, -0.74563378, -0.01546502, 0.01859844, 0.00146619, 0.00000000, 0.00000000, 0.00000000, 0.00000000
1, 0.0175, 7, 0.60084081, 0.77668470, -0.10999257, 6.04828930, 0.94088274, 1.34042895, 54.01929092, 38.11750793, -59.39783478, -81.98967743, 36.42527390, 148.21353149, -0.00085287, 0.39752224, 0.53470790, -0.74569619, -0.00706708, 0.02009654, -0.00213451, 0.00000000, 0.00000000, 0.00000000, 0.00000000
1, 0.0200, 8, 0.59309226, 0.77782202, -0.10604896, 7.19290400, 1.70445108, 1.90656233, 54.01929092, 38.11750793, -59.39783478, -81.97431946, 36.43058395, 148.20912170, -0.00080162, 0.39757231, 0.53457439, -0.74576527, 0.00075603, 0.01887459, -0.00628396, 0.00000000, 0.00000000, 0.00000000, 0.00000000
1, 0.0225, 9, 0.59003651, 0.78106093, -0.11002564, 8.12245083, 2.39676738, 2.47243261, 54.01929092, 38.11750793, -59.39783478, -81.95775604, 36.43754196, 148.20281982, -0.00074345, 0.39764029, 0.53442085, -0.74583918, 0.00390947, 0.01553166, -0.00252753, 0.00000000, 0.00000000, 0.00000000, 0.00000000
1, 0.0250, 10, 0.58744788, 0.78655434, -0.11677931, 8.76368141, 3.15783262, 2.90029740, 54.01929092, 38.11750793, -59.39783478, -81.93884277, 36.44588470, 148.19555664, -0.00067883, 0.39772040, 0.53424388, -0.74592334, 0.00661522, 0.00991553, 0.00397528, 0.00000000, 0.00000000, 0.00000000, 0.00000000
1, 0.0275, 11, 0.58825433, 0.79169667, -0.12366748, 9.33685303, 3.43576050, 3.18195319, 54.01929092, 38.11750793, -59.39783478, -81.92095184, 36.45495987, 148.18637085, -0.00060955, 0.39781347, 0.53406435, -0.74600226, 0.00593615, 0.00464463, 0.01062804, 0.00000000, 0.00000000, 0.00000000, 0.00000000
1, 0.0300, 12, 0.58774227, 0.79592371, -0.12714545, 9.84186172, 3.23164940, 3.24747443, 54.01929092, 38.11750793, -59.39783478, -81.90141296, 36.46413803, 148.17785645, -0.00053934, 0.39790398, 0.53387600, -0.74608880, 0.00657707, 0.00028503, 0.01384784, 0.00000000, 0.00000000, 0.00000000, 0.00000000
1, 0.0325, 13, 0.58760458, 0.80144191, -0.12620531, 9.84647465, 2.67774892, 3.23994851, 54.69160843, 38.26366425, -59.51476288, -81.88085175, 36.47309494, 148.17103577, -0.00047541, 0.39798543, 0.53368765, -0.74618018, 0.00684053, -0.00536603, 0.01263514, 0.00000000, 0.00000000, 0.00000000, 0.00000000
1, 0.0350, 14, 0.59038675, 0.80656677, -0.12258881, 9.56277275, 2.19259715, 3.09441710, 54.69160843, 38.26366425, -59.51476288, -81.86015320, 36.48153305, 148.16563416, -0.00041723, 0.39805725, 0.53350514, -0.74627244, 0.00417674, -0.01061857, 0.00874341, 0.00000000, 0.00000000, 0.00000000, 0.00000000
1, 0.0375, 15, 0.59085441, 0.81705767, -0.11668589, 8.92023754, 1.63485062, 2.94907403, 54.69160843, 38.26366425, -59.51476288, -81.84007263, 36.48940659, 148.16191101, -0.00036875, 0.39811829, 0.53333431, -0.74636203, 0.00381959, -0.02123046, 0.00257313, 0.00000000, 0.00000000, 0.00000000, 0.00000000
1, 0.0400, 16, 0.58818936, 0.82418579, -0.10875068, 7.55668688, 1.34624124, 2.87967730, 54.69160843, 38.26366425, -59.51476288, -81.82288361, 36.49701309, 148.15904236, -0.00033434, 0.39817372, 0.53318626, -0.74643821, 0.00659132, -0.02847087, -0.00558953, 0.00000000, 0.00000000, 0.00000000, 0.00000000
1, 0.0425, 17, 0.58493209, 0.82144219, -0.10707524, 6.12003946, 1.13278913, 2.39189816, 54.69160843, 38.26366425, -59.51476288, -81.80903625, 36.50333023, 148.15660095, -0.00030695, 0.39822003, 0.53306586, -0.74649954, 0.00993723, -0.02581991, -0.00744802, 0.00000000, 0.00000000, 0.00000000, 0.00000000
1, 0.0450, 18, 0.58714902, 0.81295073, -0.10574341, 5.04075003, 1.13370240, 1.69603705, 53.84390640, 37.35749817, -59.51476288, -81.79806519, 36.50793076, 148.15386963, -0.00027759, 0.39825827, 0.53296906, -0.74654830, 0.00778485, -0.01739771, -0.00892538, 0.00000000, 0.00000000, 0.00000000, 0.00000000
1, 0.0475, 19, 0.58741701, 0.80521542, -0.10635116, 4.31862402, 1.47756970, 1.42330003, 53.84390640, 37.35749817, -59.51476288, -81.78960419, 36.51198196, 148.14994812, -0.00024607, 0.39829889, 0.53288639, -0.74658567, 0.00757367, -0.00972092, -0.00842913, 0.00000000, 0.00000000, 0.00000000, 0.00000000
1, 0.0500, 20, 0.58584565, 0.80155557, -0.10884792, 3.59256864, 2.30500126, 1.22707295, 53.84390640, 37.35749817, -59.51476288, -81.78451538, 36.51584244, 148.14341736, -0.00020804, 0.39835075, 0.53281718, -0.74660742, 0.00919920, -0.00611091, -0.00599726, 0.00000000, 0.00000000, 0.00000000, 0.00000000
1, 0.0525, 21, 0.58618963, 0.80187953, -0.11422036, 3.15818262, 2.64935780, 1.09328210, 53.84390640, 37.35749817, -59.51476288, -81.78117371, 36.51948547, 148.13574219, -0.00016761, 0.39840654, 0.53275621, -0.74662107, 0.00890636, -0.00647908, -0.00066575, 0.00000000, 0.00000000, 0.00000000, 0.00000000
1, 0.0550, 22, 0.58519071, 0.80562830, -0.11880443, 2.58061028, 2.92313313, 0.95900220, 53.84390640, 37.35749817, -59.51476288, -81.77983093, 36.52290726, 148.12716675, -0.00012682, 0.39846531, 0.53270584, -0.74662566, 0.00995326, -0.01026571, 0.00390466, 0.00000000, 0.00000000, 0.00000000, 0.00000000
1, 0.0575, 23, 0.58322859, 0.80510545, -0.12589587, 1.93141282, 3.13029552, 0.61423272, 54.45775986, 37.82519531, -59.31014252, -81.78057098, 36.52554703, 148.11779785, -0.00008366, 0.39852345, 0.53266907, -0.74662089, 0.01195240, -0.00976843, 0.01101036, 0.00000000, 0.00000000, 0.00000000, 0.00000000
1, 0.0600, 24, 0.58202392, 0.79998094, -0.12902679, 1.50027370, 3.06142330, 0.33494774, 54.45775986, 37.82519531, -59.31014252, -81.78234100, 36.52746964, 148.10852051, -0.00004050, 0.39857721, 0.53264171, -0.74661171, 0.01318407, -0.00466019, 0.01416869, 0.00000000, 0.00000000, 0.00000000, 0.00000000
1, 0.0625, 25, 0.58010864, 0.79514897, -0.12701948, 0.99814928, 2.91934657, 0.26472232, 54.45775986, 37.82519531, -59.31014252, -81.78512573, 36.52916718, 148.09965515, -0.00000220, 0.39862785, 0.53262311, -0.74659795, 0.01512313, 0.00015992, 0.01220252, 0.00000000, 0.00000000, 0.00000000, 0.00000000
1, 0.0650, 26, 0.57902873, 0.79691625, -0.12198011, 0.56786239, 2.84168601, 0.54483604, 54.45775986, 37.82519531, -59.31014252, -81.78877258, 36.53153610, 148.09114075, 0.00002688, 0.39868045, 0.53260916, -0.74657983, 0.01623625, -0.00162429, 0.00721727, 0.00000000, 0.00000000, 0.00000000, 0.00000000
1, 0.0675, 27, 0.57891947, 0.79723060, -0.11818696, 0.27997252, 2.90604067, 0.68652987, 54.45775986, 37.82519531, -59.31014252, -81.79321289, 36.53426743, 148.08250427, 0.00005190, 0.39873576, 0.53259861, -0.74655783, 0.01638383, -0.00195801, 0.00348985, 0.00000000, 0.00000000, 0.00000000, 0.00000000
1, 0.0700, 28, 0.57807648, 0.79756767, -0.11622491, -0.00860067, 3.04073167, 0.75923955, 54.07775497, 38.20520401, -59.80707169, -81.79860687, 36.53723526, 148.07348633, 0.00007479, 0.39879411, 0.53259212, -0.74653131, 0.01726842, -0.00231463, 0.00160702, 0.00000000, 0.00000000, 0.00000000, 0.00000000
1, 0.0725, 29, 0.57917738, 0.79486692, -0.11614631, -0.36869189, 3.10771036, 0.69138473, 54.07775497, 38.20520401, -59.80707169, -81.80503845, 36.54005051, 148.06422424, 0.00009643, 0.39885271, 0.53259206, -0.74649996, 0.01620698, 0.00036991, 0.00162191, 0.00000000, 0.00000000, 0.00000000, 0.00000000
1, 0.0750, 30, 0.58076715, 0.78972942, -0.11745019, -0.58480686, 3.17383528, 0.76292783, 54.07775497, 38.20520401, -59.80707169, -81.80749512, 36.53441620, 148.05685425, 0.00016843, 0.39885578, 0.53260189, -0.74649137, 0.01453823, 0.00557035, 0.00295149, 0.00000000, 0.00000000, 0.00000000, 0.00000000
1, 0.0775, 31, 0.58403778, 0.79132861, -0.11645483, -0.73218054, 3.65276098, 1.04966414, 54.07775497, 38.20520401, -59.80707169, -81.81574249, 36.53831100, 148.04608154, 0.00018741, 0.39892745, 0.53260469, -0.74645108, 0.01132220, 0.00394750, 0.00207648, 0.00000000, 0.00000000, 0.00000000, 0.00000000
1, 0.0800, 32, 0.58549362, 0.79133016, -0.11609120, -0.73416764, 3.92641568, 1.26320171, 54.07775497, 38.20520401, -59.80707169, -81.82444763, 36.54282761, 148.03454590, 0.00020607, 0.39900604, 0.53260559, -0.74640834, 0.00992972, 0.00391680, 0.00184032, 0.00000000, 0.00000000, 0.00000000, 0.00000000
1, 0.0825, 33, 0.58692712, 0.79529959, -0.11811072, -0.80745965, 4.13016129, 1.47602427, 53.93159866, 37.97135162, -59.36860657, -81.83364105, 36.54795074, 148.02247620, 0.00022300, 0.39909044, 0.53260589, -0.74636304, 0.00856805, -0.00008690, 0.00399507, 0.00000000, 0.00000000, 0.00000000, 0.00000000
1, 0.0850, 34, 0.58981311, 0.79831511, -0.12173639, -0.73604810, 4.19897223, 1.54666388, 53.93159866, 37.97135162, -59.36860657, -81.84278870, 36.55326462, 148.01022339, 0.00024020, 0.39917678, 0.53260440, -0.74631792, 0.00575656, -0.00313896, 0.00775544, 0.00000000, 0.00000000, 0.00000000, 0.00000000
1, 0.0875, 35, 0.59368646, 0.79908282, -0.12258796, -0.51788354, 3.92183900, 1.68207324, 53.93159866, 37.97135162, -59.36860657, -81.85083771, 36.55882263, 147.99888611, 0.00025387, 0.39926019, 0.53259814, -0.74627775, 0.00196111, -0.00394779, 0.00872687, 0.00000000, 0.00000000, 0.00000000, 0.00000000
1, 0.0900, 36, 0.59829962, 0.79798591, -0.12175881, -0.51730686, 3.85260153, 1.68113256, 53.93159866, 37.97135162, -59.36860657, -81.85875702, 36.56434250, 147.98774719, 0.00026676, 0.39934245, 0.53259188, -0.74623817, -0.00257462, -0.00289208, 0.00801585, 0.00000000, 0.00000000, 0.00000000, 0.00000000
1, 0.0925, 37, 0.60205770, 0.79933459, -0.12027949, -0.36846018, 3.23190475, 1.60228932, 53.93159866, 37.97135162, -59.36860657, -81.86519623, 36.56945801, 147.97850037, 0.00027501, 0.39941370, 0.53258389, -0.74620575, -0.00626105, -0.00428057, 0.00663333, 0.00000000, 0.00000000, 0.00000000, 0.00000000
1, 0.0950, 38, 0.60461169, 0.80161399, -0.11548413, -0.36463657, 2.74943900, 1.45585430, 53.93159866, 36.77287292, -59.42706680, -81.87077332, 36.57403564, 147.97065735, 0.00028008, 0.39947540, 0.53257716, -0.74617755, -0.00875086, -0.00659597, 0.00192212, 0.00000000, 0.00000000, 0.00000000, 0.00000000
1, 0.0975, 39, 0.60643810, 0.80062008, -0.11415891, -0.29113150, 2.54349589, 1.38288140, 53.93159866, 36.77287292, -59.42706680, -81.87581635, 36.57835388, 147.96343994, 0.00028458, 0.39953285, 0.53256989, -0.74615198, -0.01051676, -0.00563651, 0.00067319, 0.00000000, 0.00000000, 0.00000000, 0.00000000
1, 0.1000, 40, 0.60547400, 0.79926014, -0.11393335, -0.14595795, 2.34042192, 1.16983294, 53.93159866, 36.77287292, -59.42706680, -81.88018036, 36.58207703, 147.95672607, 0.00029146, 0.39958453, 0.53256208, -0.74612987, -0.00950050, -0.00430626, 0.00051368, 0.00000000, 0.00000000, 0.00000000, 0.00000000
1, 0.1025, 41, 0.60704321, 0.80280751, -0.11217150, -0.14638412, 2.34481597, 0.89013350, 53.93159866, 36.77287292, -59.42706680, -81.88462067, 36.58510208, 147.94990540, 0.00030294, 0.39963305, 0.53255671, -0.74610776, -0.01102728, -0.00787610, -0.00118212, 0.00000000, 0.00000000, 0.00000000, 0.00000000
1, 0.1050, 42, 0.60846764, 0.80838865, -0.11514392, -0.57762986, 2.27704215, 0.54092360, 53.93159866, 36.77287292, -59.42706680, -81.89010620, 36.58724213, 147.94313049, 0.00031555, 0.39967641, 0.53256142, -0.74608117, -0.01242173, -0.01346845, 0.00186962, 0.00000000, 0.00000000, 0.00000000, 0.00000000
1, 0.1075, 43, 0.60846764, 0.80838865, -0.11514392, -0.57762986, 2.27704215, 0.54092360, 53.93159866, 38.00058365, -59.04706192, -81.89559937, 36.58938217, 147.93634033, 0.00032817, 0.39971977, 0.53256613, -0.74605459, -0.01239169, -0.01347965, 0.00194895, 0.00000000, 0.00000000, 0.00000000, 0.00000000
1, 0.1100, 44, 0.62308562, 0.81956059, -0.11793556, -2.07940817, 1.17052031, -0.44833347, 53.93159866, 38.00058365, -59.04706192, -81.90306854, 36.58868408, 147.93254089, 0.00033093, 0.39973360, 0.53260386, -0.74602020, -0.02701951, -0.02462966, 0.00484316, 0.00000000, 0.00000000, 0.00000000, 0.00000000
1, 0.1125, 45, 0.62308562, 0.81956059, -0.11793556, -2.07940817, 1.17052031, -0.44833347, 53.93159866, 38.00058365, -59.04706192, -81.91053009, 36.58798981, 147.92872620, 0.00033369, 0.39974746, 0.53264159, -0.74598581, -0.02702922, -0.02460766, 0.00494570, 0.00000000, 0.00000000, 0.00000000, 0.00000000
1, 0.1150, 46, 0.62524152, 0.82730889, -0.11745476, -4.08217669, -0.34294549, -2.28075218, 53.93159866, 38.00058365, -59.04706192, -81.92070770, 36.58221817, 147.92878723, 0.00033123, 0.39971542, 0.53272796, -0.74594134, -0.02926601, -0.03227664, 0.00459768, 0.00000000, 0.00000000, 0.00000000, 0.00000000
1, 0.1175, 47, 0.62756956, 0.82297784, -0.11471529, -4.79571486, -1.10028803, -2.98809052, 53.93159866, 38.00058365, -59.04706192, -81.93144989, 36.57444000, 147.93086243, 0.00032524, 0.39966282, 0.53283203, -0.74589515, -0.03170305, -0.02784419, 0.00199595, 0.00000000, 0.00000000, 0.00000000, 0.00000000
1, 0.1200, 48, 0.62724352, 0.81482762, -0.11227325, -5.36753941, -1.64527953, -3.90283298, 54.28237152, 37.15287781, -58.90090561, -81.94286346, 36.56420517, 147.93423462, 0.00032283, 0.39959073, 0.53295338, -0.74584705, -0.03152049, -0.01956624, -0.00030262, 0.00000000, 0.00000000, 0.00000000, 0.00000000
1, 0.1225, 49, 0.62097144, 0.80558521, -0.11276849, -5.14928675, -2.04990220, -4.46855354, 54.28237152, 37.15287781, -58.90090561, -81.95314026, 36.55242920, 147.93859863, 0.00032681, 0.39950547, 0.53307617, -0.74580503, -0.02541351, -0.01018232, 0.00031809, 0.00000000, 0.00000000, 0.00000000, 0.00000000
1, 0.1250, 50, 0.61225504, 0.80368173, -0.11143561, -4.71805954, -2.10852003, -4.89039850, 54.28237152, 37.15287781, -58.90090561, -81.96330261, 36.54292679, 147.94262695, 0.00032014, 0.39943430, 0.53318912, -0.74576235, -0.01683033, -0.00816125, -0.00088754, 0.00000000, 0.00000000, 0.00000000, 0.00000000
1, 0.1275, 51, 0.60571969, 0.80167085, -0.11047543, -4.28503990, -2.31220388, -4.89457607, 54.28237152, 37.15287781, -58.90090561, -81.97104645, 36.53001022, 147.94763184, 0.00033554, 0.39933980, 0.53330153, -0.74573261, -0.01047611, -0.00600219, -0.00175898, 0.00000000, 0.00000000, 0.00000000, 0.00000000
1, 0.1300, 52, 0.59916627, 0.80118686, -0.11315776, -3.99714994, -2.37655854, -5.03626919, 54.28237152, 37.15287781, -58.90090561, -81.97798157, 36.51671219, 147.95277405, 0.00035500, 0.39924258, 0.53341043, -0.74570680, -0.00410926, -0.00536793, 0.00100036, 0.00000000, 0.00000000, 0.00000000, 0.00000000
1, 0.1325, 53, 0.59600186, 0.80146658, -0.11656853, -3.49293184, -2.50923491, -5.10965633, 53.58082199, 38.00058365, -58.63782501, -81.98342896, 36.50318527, 147.95826721, 0.00037851, 0.39914232, 0.53351176, -0.74568796, -0.00113457, -0.00549799, 0.00446726, 0.00000000, 0.00000000, 0.00000000, 0.00000000
1, 0.1350, 54, 0.59080130, 0.79642737, -0.11834579, -2.98766732, -2.77928829, -5.25485039, 53.58082199, 38.00058365, -58.63782501, -81.98715973, 36.48921585, 147.96455383, 0.00040563, 0.39903599, 0.53360611, -0.74567735, 0.00387001, -0.00030768, 0.00627614, 0.00000000, 0.00000000, 0.00000000, 0.00000000
1, 0.1375, 55, 0.58681935, 0.79185230, -0.11779668, -2.26575470, -3.12095857, -5.12196255, 53.58082199, 38.00058365, -58.63782501, -81.98842621, 36.47544479, 147.97193909, 0.00043289, 0.39892560, 0.53368759, -0.74567813, 0.00765872, 0.00441134, 0.00572470, 0.00000000, 0.00000000, 0.00000000, 0.00000000
1, 0.1400, 56, 0.58381534, 0.78494656, -0.11728526, -1.69038236, -3.11888242, -4.91399527, 53.58082199, 38.00058365, -58.63782501, -81.98821259, 36.46219254, 147.97941589, 0.00046181, 0.39881766, 0.53375787, -0.74568552, 0.01047671, 0.01145268, 0.00519113, 0.00000000, 0.00000000, 0.00000000, 0.00000000
1, 0.1425, 57, 0.58264410, 0.77847493, -0.11212745, -0.68329430, -3.11717176, -4.42768240, 53.58082199, 38.00058365, -58.63782501, -81.98535919, 36.45014572, 147.98709106, 0.00049160, 0.39871538, 0.53380752, -0.74570465, 0.01147884, 0.01804245, -0.00002380, 0.00000000, 0.00000000, 0.00000000, 0.00000000
1, 0.1450, 58, 0.57844049, 0.77538890, -0.10397886, 0.46535707, -2.83826613, -3.86813450, 54.01929092, 37.56211472, -58.55013275, -81.98000336, 36.43958282, 147.99414062, 0.00052552, 0.39862415, 0.53383362, -0.74573469, 0.01553416, 0.02122658, -0.00826209, 0.00000000, 0.00000000, 0.00000000, 0.00000000
1, 0.1475, 59, 0.57445008, 0.77702677, -0.09942431, 1.25229383, -2.28576779, -3.30369449, 54.01929092, 37.56211472, -58.55013275, -81.97354126, 36.43060303, 147.99975586, 0.00056354, 0.39854848, 0.53384197, -0.74576914, 0.01939845, 0.01966804, -0.01291946, 0.00000000, 0.00000000, 0.00000000, 0.00000000
1, 0.1500, 60, 0.57215106, 0.78075504, -0.09435242, 2.03844047, -1.66183496, -2.87816286, 54.01929092, 37.56211472, -58.55013275, -81.96614838, 36.42289734, 148.00363159, 0.00060874, 0.39848790, 0.53383386, -0.74580729, 0.02158928, 0.01600433, -0.01810527, 0.00000000, 0.00000000, 0.00000000, 0.00000000
1, 0.1525, 61, 0.57203531, 0.78158003, -0.09189561, 2.61009622, -1.17839146, -2.45383549, 54.01929092, 37.56211472, -58.55013275, -81.95810699, 36.41641998, 148.00617981, 0.00065763, 0.39844012, 0.53381270, -0.74584788, 0.02161402, 0.01523006, -0.02068335, 0.00000000, 0.00000000, 0.00000000, 0.00000000
1, 0.1550, 62, 0.57045430, 0.78292644, -0.09199395, 2.81945992, -0.35211742, -2.02367496, 54.01929092, 37.56211472, -58.55013275, -81.95093536, 36.41128540, 148.00637817, 0.00071096, 0.39841080, 0.53378439, -0.74588376, 0.02312297, 0.01392227, -0.02069221, 0.00000000, 0.00000000, 0.00000000, 0.00000000
1, 0.1575, 63, 0.56862742, 0.78452796, -0.09282108, 2.95877934, 0.26467389, -1.52618599, 53.61005402, 37.47442245, -58.84244156, -81.94441223, 36.40760422, 148.00489807, 0.00076460, 0.39839730, 0.53374946, -0.74591589, 0.02489811, 0.01234567, -0.01996114, 0.00000000, 0.00000000, 0.00000000, 0.00000000
1, 0.1600, 64, 0.56788635, 0.78748834, -0.09375183, 2.88177037, 0.94978690, -1.09700346, 53.61005402, 37.47442245, -58.84244156, -81.93922424, 36.40522385, 148.00149536, 0.00081856, 0.39839992, 0.53371209, -0.74594116, 0.02560574, 0.00939953, -0.01910592, 0.00000000, 0.00000000, 0.00000000, 0.00000000
1, 0.1625, 65, 0.57223374, 0.79024047, -0.09567375, 2.80580783, 1.49752331, -0.73962742, 53.61005402, 37.47442245, -58.84244156, -81.93512726, 36.40391541, 147.99658203, 0.00087242, 0.39841563, 0.53367281, -0.74596083, 0.02124000, 0.00665271, -0.01724292, 0.00000000, 0.00000000, 0.00000000, 0.00000000
1, 0.1650, 66, 0.57816517, 0.79248232, -0.09577377, 2.58702302, 1.90763879, -0.52353084, 53.61005402, 37.47442245, -58.84244156, -81.93228912, 36.40328979, 147.99047852, 0.00092563, 0.39844051, 0.53363526, -0.74597436, 0.01529974, 0.00441176, -0.01718337, 0.00000000, 0.00000000, 0.00000000, 0.00000000
1, 0.1675, 67, 0.58651584, 0.79281747, -0.09932947, 2.36975455, 2.11223841, -0.45010620, 53.61005402, 37.47442245, -58.84244156, -81.93032837, 36.40291214, 147.98379517, 0.00097815, 0.39846957, 0.53360057, -0.74598360, 0.00694376, 0.00407648, -0.01365547, 0.00000000, 0.00000000, 0.00000000, 0.00000000
1, 0.1700, 68, 0.58943111, 0.79098910, -0.09948564, 2.43907213, 2.45580220, -0.23585381, 53.52236176, 38.38058853, -58.93013763, -81.92877197, 36.40318680, 147.97613525, 0.00103178, 0.39850673, 0.53356290, -0.74599063, 0.00403237, 0.00589901, -0.01352046, 0.00000000, 0.00000000, 0.00000000, 0.00000000
1, 0.1725, 69, 0.59014463, 0.79310799, -0.10128761, 2.58095527, 2.72970128, 0.04715689, 53.52236176, 38.38058853, -58.93013763, -81.92728424, 36.40426636, 147.96777344, 0.00108523, 0.39855164, 0.53352040, -0.74599695, 0.00333399, 0.00376624, -0.01173762, 0.00000000, 0.00000000, 0.00000000, 0.00000000
1, 0.1750, 70, 0.58917314, 0.79468572, -0.10016169, 2.72320127, 2.93655992, 0.18937716, 53.52236176, 38.38058853, -58.93013763, -81.93791199, 36.40488052, 147.95172119, 0.00114916, 0.39862987, 0.53353161, -0.74594700, 0.00431412, 0.00220305, -0.01271482, 0.00000000, 0.00000000, 0.00000000, 0.00000000
1, 0.1775, 71, 0.59171766, 0.79797268, -0.09706164, 2.57781482, 3.14183116, 0.26257592, 53.52236176, 38.38058853, -58.93013763, -81.93713379, 36.40663528, 147.94216919, 0.00120387, 0.39868402, 0.53348726, -0.74594969, 0.00179428, -0.00110346, -0.01582314, 0.00000000, 0.00000000, 0.00000000, 0.00000000
1, 0.1800, 72, 0.59353536, 0.80004287, -0.09507852, 1.92868006, 3.41163993, 0.33829638, 53.52236176, 38.38058853, -58.93013763, -81.93845367, 36.40867615, 147.93180847, 0.00125485, 0.39874342, 0.53345281, -0.74594247, 0.00000518, -0.00319195, -0.01778496, 0.00000000, 0.00000000, 0.00000000, 0.00000000
1, 0.1825, 73, 0.59447384, 0.80235529, -0.10176590, 1.56707191, 3.68413424, 0.41311342, 53.72697830, 38.26366425, -59.60245514, -81.94116211, 36.41098785, 147.92066956, 0.00130463, 0.39880821, 0.53342366, -0.74592870, -0.00090075, -0.00552279, -0.01105665, 0.00000000, 0.00000000, 0.00000000, 0.00000000
1, 0.1850, 74, 0.59833574, 0.80123109, -0.10790090, 1.42168522, 3.88940573, 0.48631224, 53.72697830, 38.26366425, -59.60245514, -81.94458008, 36.41355896, 147.90890503, 0.00135435, 0.39887714, 0.53339618, -0.74591142, -0.00472659, -0.00441814, -0.00487032, 0.00000000, 0.00000000, 0.00000000, 0.00000000
1, 0.1875, 75, 0.60317814, 0.79909867, -0.11197597, 1.49450707, 3.75379896, 0.34435520, 53.72697830, 38.26366425, -59.60245514, -81.94760895, 36.41572189, 147.89750671, 0.00140544, 0.39894214, 0.53336871, -0.74589610, -0.00953859, -0.00230199, -0.00075001, 0.00000000, 0.00000000, 0.00000000, 0.00000000
1, 0.1900, 76, 0.60716933, 0.79975963, -0.11392918, 1.56916559, 3.40938115, 0.26950076, 53.72697830, 38.26366425, -59.60245514, -81.94983673, 36.41757584, 147.88714600, 0.00145438, 0.39900070, 0.53334075, -0.74588472, -0.01350373, -0.00297767, 0.00123696, 0.00000000, 0.00000000, 0.00000000, 0.00000000
1, 0.1925, 77, 0.61080611, 0.80074430, -0.11282178, 1.93271673, 2.92697692, 0.33171114, 53.72697830, 38.26366425, -59.60245514, -81.95027161, 36.41942978, 147.87828064, 0.00149986, 0.39905214, 0.53330630, -0.74588174, -0.01711446, -0.00398040, 0.00013820, 0.00000000, 0.00000000, 0.00000000, 0.00000000
1, 0.1950, 78, 0.61093038, 0.80109614, -0.11159467, 2.22474980, 2.37686086, 0.25335693, 53.72697830, 38.26366425, -59.01782990, -81.94898987, 36.42089081, 147.87107849, 0.00154276, 0.39909372, 0.53326786, -0.74588692, -0.01721824, -0.00434977, -0.00110461, 0.00000000, 0.00000000, 0.00000000, 0.00000000
1, 0.1975, 79, 0.60572469, 0.80346757, -0.10714860, 2.29883146, 2.10168028, 0.17944326, 53.34697342, 37.00672150, -59.01782990, -81.94702911, 36.42206955, 147.86470032, 0.00158431, 0.39912993, 0.53322881, -0.74589539, -0.01199603, -0.00673717, -0.00557617, 0.00000000, 0.00000000, 0.00000000, 0.00000000
1, 0.2000, 80, 0.59446973, 0.80806607, -0.09703497, 2.01476502, 1.68356931, 0.17470215, 53.34697342, 37.00672150, -59.01782990, -81.94502258, 36.42309189, 147.85958862, 0.00161860, 0.39915928, 0.53319442, -0.74590415, -0.00072664, -0.01135004, -0.01571622, 0.00000000, 0.00000000, 0.00000000, 0.00000000
1, 0.2075, 81, 0.60603440, 0.80004549, -0.09119376, 0.43226057, 1.74352741, -0.16901274, 53.34697342, 37.00672150, -59.01782990, -81.94590759, 36.42538452, 147.84355164, 0.00170661, 0.39924657, 0.53313637, -0.74589872, -0.01225913, -0.00335127, -0.02154186, 0.00000000, 0.00000000, 0.00000000, 0.00000000
1, 0.2100, 82, 0.60603440, 0.80004549, -0.09119376, 0.43226057, 1.74352741, -0.16901274, 53.52236176, 38.05904770, -59.39783478, -81.94805908, 36.42557526, 147.83811951, 0.00173340, 0.39927295, 0.53313076, -0.74588853, -0.01225644, -0.00334907, -0.02151164, 0.00000000, 0.00000000, 0.00000000, 0.00000000
1, 0.2125, 83, 0.59802103, 0.79715383, -0.09794248, 0.21345675, 2.02725148, -0.72397095, 53.52236176, 38.05904770, -59.39783478, -81.95141602, 36.42449570, 147.83155823, 0.00177062, 0.39929751, 0.53313357, -0.74587333, -0.00425828, -0.00043958, -0.01471782, 0.00000000, 0.00000000, 0.00000000, 0.00000000
1, 0.2150, 84, 0.59256250, 0.79423589, -0.10200848, 0.13837218, 2.37606335, -0.92881596, 53.52236176, 38.05904770, -59.39783478, -81.95565033, 36.42302704, 147.82385254, 0.00181458, 0.39932537, 0.53313929, -0.74585420, 0.00117964, 0.00250155, -0.01059504, 0.00000000, 0.00000000, 0.00000000, 0.00000000
1, 0.2175, 85, 0.59000599, 0.79269397, -0.10679255, -0.07831942, 2.51142573, -0.85633206, 53.52236176, 38.05904770, -59.39783478, -81.96064758, 36.42178726, 147.81575012, 0.00185704, 0.39935628, 0.53314787, -0.74583137, 0.00371873, 0.00406611, -0.00574327, 0.00000000, 0.00000000, 0.00000000, 0.00000000
1, 0.2200, 86, 0.58731651, 0.79422766, -0.11177366, -0.22344904, 2.65075493, -0.99384856, 53.52236176, 38.05904770, -59.39783478, -81.96630096, 36.42025375, 147.80715942, 0.00190210, 0.39938790, 0.53316009, -0.74580568, 0.00638670, 0.00255919, -0.00068573, 0.00000000, 0.00000000, 0.00000000, 0.00000000
1, 0.2225, 87, 0.58718067, 0.79440731, -0.11580314, -0.36684865, 2.58237123, -1.13418722, 53.23004913, 38.26366425, -59.54399109, -81.97223663, 36.41835022, 147.79873657, 0.00194739, 0.39941674, 0.53317583, -0.74577886, 0.00649577, 0.00241071, 0.00342348, 0.00000000, 0.00000000, 0.00000000, 0.00000000
1, 0.2250, 88, 0.59019274, 0.79558671, -0.11994597, -0.43873021, 2.58169961, -1.13396144, 53.23004913, 38.26366425, -59.54399109, -81.96772003, 36.41349030, 147.79621887, 0.00200761, 0.39940155, 0.53315449, -0.74580210, 0.00341547, 0.00127232, 0.00749649, 0.00000000, 0.00000000, 0.00000000, 0.00000000
1, 0.2275, 89, 0.58908629, 0.79697704, -0.12297737, -0.58129627, 2.37813711, -1.48595631, 53.23004913, 38.26366425, -59.54399109, -81.97389221, 36.41064072, 147.78825378, 0.00205439, 0.39942297, 0.53317678, -0.74577457, 0.00448191, -0.00007665, 0.01060965, 0.00000000, 0.00000000, 0.00000000, 0.00000000
1, 0.2300, 90, 0.59115344, 0.79538536, -0.12276156, -0.79380065, 1.96399271, -1.70069790, 53.23004913, 38.26366425, -59.54399109, -81.97989655, 36.40711594, 147.78147888, 0.00209799, 0.39943516, 0.53320444, -0.74574816, 0.00236523, 0.00156301, 0.01047228, 0.00000000, 0.00000000, 0.00000000, 0.00000000
1, 0.2325, 91, 0.59393847, 0.79625869, -0.12275390, -1.00814152, 1.75865984, -1.98254204, 53.23004913, 38.26366425, -59.54399109, -81.98613739, 36.40282822, 147.77522278, 0.00214191, 0.39944077, 0.53323799, -0.74572104, -0.00048006, 0.00074601, 0.01054510, 0.00000000, 0.00000000, 0.00000000, 0.00000000
1, 0.2350, 92, 0.59831148, 0.79224390, -0.12429070, -1.14981115, 1.48256373, -2.12570286, 53.46389771, 38.46828461, -59.36860657, -81.99226379, 36.39807510, 147.76972961, 0.00218372, 0.39944014, 0.53327513, -0.74569458, -0.00491983, 0.00482130, 0.01216038, 0.00000000, 0.00000000, 0.00000000, 0.00000000
1, 0.2375, 93, 0.60292041, 0.78934675, -0.12654404, -1.22038901, 1.27857363, -2.40799856, 53.46389771, 38.46828461, -59.36860657, -81.99826813, 36.39255905, 147.76475525, 0.00222714, 0.39943299, 0.53331590, -0.74566913, -0.00960624, 0.00778687, 0.01448920, 0.00000000, 0.00000000, 0.00000000, 0.00000000
1, 0.2400, 94, 0.60111636, 0.78673631, -0.12511393, -0.71281755, 0.73157036, -2.55695510, 53.46389771, 38.46828461, -59.36860657, -82.00203705, 36.38648224, 147.76141357, 0.00227103, 0.39941517, 0.53334975, -0.74565434, -0.00788754, 0.01046699, 0.01310277, 0.00000000, 0.00000000, 0.00000000, 0.00000000
1, 0.2425, 95, 0.59809387, 0.78959739, -0.11980946, 0.01050533, 0.18548299, -2.63666463, 53.46389771, 38.46828461, -59.36860657, -82.00302124, 36.38001633, 147.75970459, 0.00231618, 0.39938751, 0.53337252, -0.74565274, -0.00495589, 0.00767410, 0.00780267, 0.00000000, 0.00000000, 0.00000000, 0.00000000
1, 0.2450, 96, 0.59268194, 0.78855002, -0.10845004, 0.73079431, 0.05042686, -2.43103004, 53.46389771, 38.46828461, -59.36860657, -82.00191498, 36.37401962, 147.75848389, 0.00236268, 0.39936003, 0.53338182, -0.74566066, 0.00037175, 0.00878078, -0.00358077, 0.00000000, 0.00000000, 0.00000000, 0.00000000
1, 0.2875, 97, 0.58219165, 0.80233687, -0.11310539, 2.44230056, 1.91618252, -1.15240276, 53.81467438, 37.82519531, -58.31628036, -81.94694519, 36.29449844, 147.67083740, 0.00358560, 0.39932784, 0.53299332, -0.74595082, 0.00974393, -0.00429976, 0.00019453, 0.00000000, 0.00000000, 0.00000000, 0.00000000
1, 0.2900, 98, 0.57999909, 0.80140072, -0.11714775, 2.51392508, 1.98279595, -0.94191343, 53.81467438, 37.82519531, -58.31628036, -81.94451141, 36.29285431, 147.66432190, 0.00364589, 0.39934894, 0.53296047, -0.74596268, 0.01191342, -0.00335163, 0.00420060, 0.00000000, 0.00000000, 0.00000000, 0.00000000
1, 0.2925, 99, 0.57938188, 0.80132192, -0.12044702, 2.73025322, 1.91447425, -0.87360680, 53.81467438, 37.82519531, -58.31628036, -81.94139099, 36.29137039, 147.65808105, 0.00370616, 0.39936972, 0.53292352, -0.74597770, 0.01250971, -0.00326365, 0.00745425, 0.00000000, 0.00000000, 0.00000000, 0.00000000
1, 0.2950, 100, 0.58239073, 0.80554277, -0.12234373, 2.87527633, 1.77624357, -0.80601501, 53.81467438, 37.82519531, -58.31628036, -81.93763733, 36.28999710, 147.65226746, 0.00376498, 0.39938903, 0.53288358, -0.74599558, 0.00948155, -0.00747794, 0.00929663, 0.00000000, 0.00000000, 0.00000000, 0.00000000
1, 0.2975, 101, 0.58735490, 0.80922365, -0.12022018, 2.94957113, 1.49886632, -0.74007910, 53.90236664, 37.56211472, -58.63782501, -81.93318176, 36.28869247, 147.64735413, 0.00382015, 0.39940459, 0.53284192, -0.74601674, 0.00449902, -0.01115424, 0.00710918, 0.00000000, 0.00000000, 0.00000000, 0.00000000
1, 0.3000, 102, 0.59849250, 0.81430107, -0.11918768, 2.73659658, 1.15286112, -0.88395500, 53.90236664, 37.56211472, -58.63782501, -81.92866516, 36.28690338, 147.64341736, 0.00387178, 0.39941284, 0.53280503, -0.74603844, -0.00666374, -0.01622224, 0.00601117, 0.00000000, 0.00000000, 0.00000000, 0.00000000
1, 0.3025, 103, 0.60104007, 0.81624299, -0.11659702, 2.45120740, 0.81167704, -1.37722933, 53.90236664, 37.56211472, -58.63782501, -81.92436981, 36.28377914, 147.64031982, 0.00392499, 0.39940983, 0.53277707, -0.74605972, -0.00925523, -0.01814074, 0.00335617, 0.00000000, 0.00000000, 0.00000000, 0.00000000
1, 0.3050, 104, 0.60104007, 0.81624299, -0.11659702, 2.45120740, 0.81167704, -1.37722933, 53.90236664, 37.56211472, -58.63782501, -81.92007446, 36.28065109, 147.63722229, 0.00397820, 0.39940682, 0.53274912, -0.74608099, -0.00929922, -0.01811731, 0.00329176, 0.00000000, 0.00000000, 0.00000000, 0.00000000
1, 0.3075, 105, 0.60240203, 0.82558268, -0.09861600, 1.23146439, 0.46066570, -1.79764295, 53.90236664, 37.56211472, -58.63782501, -81.91829681, 36.27636719, 147.63504028, 0.00402354, 0.39939332, 0.53274471, -0.74609113, -0.01072151, -0.02741665, -0.01472017, 0.00000000, 0.00000000, 0.00000000, 0.00000000
1, 0.3100, 106, 0.60240203, 0.82558268, -0.09861600, 1.23146439, 0.46066570, -1.79764295, 54.28237152, 35.95439911, -58.75474930, -81.91651917, 36.27207565, 147.63284302, 0.00406889, 0.39937982, 0.53274029, -0.74610126, -0.01078189, -0.02737636, -0.01475117, 0.00000000, 0.00000000, 0.00000000, 0.00000000
1, 0.3125, 107, 0.60698628, 0.83017612, -0.10026584, 0.21750012, 1.22606087, -2.62323093, 54.28237152, 35.95439911, -58.75474930, -81.91888428, 36.26601791, 147.62792969, 0.00412773, 0.39936927, 0.53275955, -0.74609286, -0.01545138, -0.03190310, -0.01307720, 0.00000000, 0.00000000, 0.00000000, 0.00000000
1, 0.3150, 108, 0.61462146, 0.82573521, -0.10535955, -0.29113674, 1.78404915, -3.17352247, 54.28237152, 35.95439911, -58.75474930, -81.92366791, 36.25878525, 147.62106323, 0.00419759, 0.39936137, 0.53279173, -0.74607360, -0.02318835, -0.02737880, -0.00792737, 0.00000000, 0.00000000, 0.00000000, 0.00000000
1, 0.3175, 109, 0.61803156, 0.82071865, -0.10593213, -0.65291405, 1.99499571, -3.58912039, 54.28237152, 35.95439911, -58.75474930, -81.92984009, 36.25059891, 147.61338806, 0.00427351, 0.39935219, 0.53283346, -0.74604833, -0.02671367, -0.02226639, -0.00728057, 0.00000000, 0.00000000, 0.00000000, 0.00000000
1, 0.3200, 110, 0.61648637, 0.81477171, -0.10320947, -0.65244395, 1.92685664, -3.65998578, 54.28237152, 35.95439911, -58.75474930, -81.93591309, 36.24221802, 147.60589600, 0.00434979, 0.39934105, 0.53287578, -0.74602360, -0.02528644, -0.01622164, -0.00993083, 0.00000000, 0.00000000, 0.00000000, 0.00000000
1, 0.3225, 111, 0.61031365, 0.81555295, -0.09964114, -0.58276248, 2.20337987, -3.58652377, 54.51622391, 38.08827972, -58.34551239, -81.94228363, 36.23410416, 147.59756470, 0.00442870, 0.39933527, 0.53291631, -0.74599731, -0.01922792, -0.01690775, -0.01342200, 0.00000000, 0.00000000, 0.00000000, 0.00000000
1, 0.3250, 112, 0.60545594, 0.81750554, -0.10021228, -0.29707253, 2.41487694, -3.65452981, 54.51622391, 38.08827972, -58.34551239, -81.96134186, 36.22712326, 147.58129883, 0.00450866, 0.39937314, 0.53300780, -0.74591118, -0.01446849, -0.01875144, -0.01259527, 0.00000000, 0.00000000, 0.00000000, 0.00000000
1, 0.3275, 113, 0.59987319, 0.81714386, -0.10252814, -0.29786229, 2.48631144, -3.79343843, 54.51622391, 38.08827972, -58.34551239, -81.96756744, 36.21860886, 147.57200623, 0.00459671, 0.39936954, 0.53304541, -0.74588567, -0.00900567, -0.01829040, -0.01020493, 0.00000000, 0.00000000, 0.00000000, 0.00000000
1, 0.3300, 114, 0.59331805, 0.81751508, -0.10483078, -0.44057867, 2.34759164, -3.86479354, 54.51622391, 38.08827972, -58.34551239, -81.97390747, 36.20986176, 147.56314087, 0.00468306, 0.39936289, 0.53308606, -0.74585974, -0.00257367, -0.01855975, -0.00782648, 0.00000000, 0.00000000, 0.00000000, 0.00000000
1, 0.3325, 115, 0.59393412, 0.81408507, -0.10549554, -0.65575349, 2.27743840, -3.93498135, 54.51622391, 38.08827972, -58.34551239, -81.98068237, 36.20090866, 147.55445862, 0.00476786, 0.39935422, 0.53313076, -0.74583185, -0.00331581, -0.01502526, -0.00708009, 0.00000000, 0.00000000, 0.00000000, 0.00000000
1, 0.3350, 116, 0.59574980, 0.81361926, -0.10672837, -0.87370491, 2.55237460, -3.93054080, 54.01929092, 38.02981567, -58.28704834, -81.98849487, 36.19207382, 147.54492188, 0.00485389, 0.39935014, 0.53317899, -0.74579906, -0.00525594, -0.01445377, -0.00575108, 0.00000000, 0.00000000, 0.00000000, 0.00000000
1, 0.3375, 117, 0.59889215, 0.81282401, -0.11029070, -0.87485826, 2.69084978, -3.92865944, 54.01929092, 38.02981567, -58.28704834, -81.99655151, 36.18328094, 147.53497314, 0.00494149, 0.39934826, 0.53322709, -0.74576497, -0.00852215, -0.01355308, -0.00208895, 0.00000000, 0.00000000, 0.00000000, 0.00000000
1, 0.3400, 118, 0.60020500, 0.81206536, -0.11702587, -0.73109508, 2.69219255, -3.92911100, 54.01929092, 38.02981567, -58.28704834, -82.00425720, 36.17449570, 147.52503967, 0.00503037, 0.39934644, 0.53327292, -0.74573261, -0.00995880, -0.01268965, 0.00474106, 0.00000000, 0.00000000, 0.00000000, 0.00000000
1, 0.3425, 119, 0.60250002, 0.81235141, -0.11910354, -0.29681548, 2.34893489, -3.86524534, 54.01929092, 38.02981567, -58.28704834, -82.01022339, 36.16573715, 147.51617432, 0.00511799, 0.39933971, 0.53331119, -0.74570829, -0.01237721, -0.01287479, 0.00688950, 0.00000000, 0.00000000, 0.00000000, 0.00000000
1, 0.3450, 120, 0.60481346, 0.81195694, -0.11654817, -0.22168702, 1.93637788, -4.01096487, 54.01929092, 38.02981567, -58.28704834, -82.01530457, 36.15648270, 147.50849915, 0.00520384, 0.39932457, 0.53334957, -0.74568838, -0.01482106, -0.01237584, 0.00439184, 0.00000000, 0.00000000, 0.00000000, 0.00000000
1, 0.3475, 121, 0.60166675, 0.81543547, -0.11147838, -0.14933527, 1.86891043, -4.08205652, 53.87313461, 38.26366425, -57.93627548, -82.02010345, 36.14702225, 147.50102234, 0.00529070, 0.39930749, 0.53338736, -0.74566990, -0.01180762, -0.01574850, -0.00062463, 0.00000000, 0.00000000, 0.00000000, 0.00000000
1, 0.3500, 122, 0.59888428, 0.81479400, -0.11050493, 0.06840312, 1.59617162, -4.22634649, 53.87313461, 38.26366425, -57.93627548, -82.02388000, 36.13711548, 147.49430847, 0.00537862, 0.39928427, 0.53342289, -0.74565631, -0.00916481, -0.01499868, -0.00155944, 0.00000000, 0.00000000, 0.00000000, 0.00000000
1, 0.3525, 123, 0.60034871, 0.81500316, -0.10744978, 0.14269793, 1.31879425, -4.16041040, 53.87313461, 38.26366425, -57.93627548, -82.02696228, 36.12726593, 147.48847961, 0.00546289, 0.39925727, 0.53345662, -0.74564600, -0.01076806, -0.01510144, -0.00458567, 0.00000000, 0.00000000, 0.00000000, 0.00000000
1, 0.3550, 124, 0.60231680, 0.81453234, -0.09964038, -0.07258330, 1.24973953, -4.30052376, 53.87313461, 38.26366425, -57.93627548, -82.03048706, 36.11705399, 147.48280334, 0.00554676, 0.39922750, 0.53349507, -0.74563372, -0.01288015, -0.01451963, -0.01236045, 0.00000000, 0.00000000, 0.00000000, 0.00000000
1, 0.3575, 125, 0.60125411, 0.81417030, -0.09182312, -0.50628614, 1.52375937, -4.36532974, 53.87313461, 38.26366425, -57.93627548, -82.03559875, 36.10677338, 147.47627258, 0.00563110, 0.39920154, 0.53354114, -0.74561405, -0.01196241, -0.01404291, -0.02012090, 0.00000000, 0.00000000, 0.00000000, 0.00000000
1, 0.3600, 126, 0.60150510, 0.81328845, -0.09024856, -0.65649927, 2.28512812, -4.42445517, 53.87313461, 38.26366425, -58.63782501, -82.04248810, 36.09661484, 147.46736145, 0.00572395, 0.39918730, 0.53359008, -0.74558598, -0.01235664, -0.01304406, -0.02161378, 0.00000000, 0.00000000, 0.00000000, 0.00000000
1, 0.3625, 127, 0.60223550, 0.81340086, -0.08927076, -0.80718249, 3.11463618, -4.41271448, 53.49312973, 36.94826126, -58.63782501, -82.05123138, 36.08675766, 147.45593262, 0.00582496, 0.39918667, 0.53364122, -0.74554890, -0.01322609, -0.01303923, -0.02248336, 0.00000000, 0.00000000, 0.00000000, 0.00000000
1, 0.3650, 128, 0.60671628, 0.81089443, -0.09310643, -0.52458894, 3.67451763, -4.61586666, 53.49312973, 36.94826126, -58.63782501, -82.06034088, 36.07659531, 147.44270325, 0.00593825, 0.39919275, 0.53368950, -0.74551022, -0.01785016, -0.01041156, -0.01853494, 0.00000000, 0.00000000, 0.00000000, 0.00000000
1, 0.3675, 129, 0.61034358, 0.80719334, -0.09964698, -0.31146389, 3.95567966, -4.75263071, 53.49312973, 36.94826126, -58.63782501, -82.06945038, 36.06619644, 147.42855835, 0.00605889, 0.39920178, 0.53373545, -0.74547154, -0.02162421, -0.00658673, -0.01188196, 0.00000000, 0.00000000, 0.00000000, 0.00000000
1, 0.3700, 130, 0.61143243, 0.80732822, -0.10013593, 0.19128112, 3.96477389, -5.03391075, 53.49312973, 36.94826126, -58.63782501, -82.07737732, 36.05509186, 147.41427612, 0.00618859, 0.39920756, 0.53377563, -0.74543852, -0.02286971, -0.00659335, -0.01129784, 0.00000000, 0.00000000, 0.00000000, 0.00000000
1, 0.3725, 131, 0.60900253, 0.80770302, -0.10134719, 0.62203795, 3.97429538, -5.38489056, 53.49312973, 36.94826126, -58.63782501, -82.08434296, 36.04313660, 147.39981079, 0.00632786, 0.39920941, 0.53381187, -0.74541044, -0.02060854, -0.00683290, -0.01000628, 0.00000000, 0.00000000, 0.00000000, 0.00000000
1, 0.3750, 132, 0.60670543, 0.80645621, -0.10087278, 1.05452502, 3.77610373, -5.73869181, 53.20081711, 37.38673019, -58.37474442, -82.09590912, 36.03573608, 147.38288879, 0.00644058, 0.39924815, 0.53385371, -0.74535871, -0.01841581, -0.00548834, -0.01032937, 0.00000000, 0.00000000, 0.00000000, 0.00000000
1, 0.3775, 133, 0.60260135, 0.80273235, -0.09969942, 1.55915058, 3.51264191, -6.30343485, 53.20081711, 37.38673019, -58.37474442, -82.09992218, 36.02133560, 147.36944580, 0.00659757, 0.39923167, 0.53388280, -0.74534535, -0.01451504, -0.00161016, -0.01146703, 0.00000000, 0.00000000, 0.00000000, 0.00000000
1, 0.3800, 134, 0.59996480, 0.79666090, -0.09722082, 2.06142545, 3.58987498, -6.51384926, 53.20081711, 37.38673019, -58.37474442, -82.10285950, 36.00643539, 147.35568237, 0.00676326, 0.39921388, 0.53390551, -0.74533719, -0.01208884, 0.00461823, -0.01392557, 0.00000000, 0.00000000, 0.00000000, 0.00000000
1, 0.3825, 135, 0.59853852, 0.79254073, -0.09324846, 2.63558173, 3.66777992, -6.72448969, 53.20081711, 37.38673019, -58.37474442, -82.10453796, 35.99104691, 147.34159851, 0.00693828, 0.39919481, 0.53392071, -0.74533492, -0.01087988, 0.00889814, -0.01789605, 0.00000000, 0.00000000, 0.00000000, 0.00000000
1, 0.3850, 136, 0.59395212, 0.78928888, -0.09084490, 3.20811510, 3.95229888, -6.86238337, 53.20081711, 37.38673019, -58.37474442, -82.10534668, 35.97541046, 147.32659912, 0.00712385, 0.39917865, 0.53392774, -0.74533683, -0.00651431, 0.01231039, -0.02031038, 0.00000000, 0.00000000, 0.00000000, 0.00000000
1, 0.3875, 137, 0.59068668, 0.78706294, -0.09099448, 3.77949452, 4.37529325, -6.99839544, 53.52236176, 37.88365936, -58.43320465, -82.10549164, 35.95957947, 147.31025696, 0.00732152, 0.39916763, 0.53392649, -0.74534160, -0.00347251, 0.01469731, -0.02018096, 0.00000000, 0.00000000, 0.00000000, 0.00000000
1, 0.3900, 138, 0.58778876, 0.78288430, -0.09203010, 4.35087395, 4.79828787, -7.13440704, 53.52236176, 37.88365936, -58.43320465, -82.10501862, 35.94355774, 147.29252625, 0.00753132, 0.39916185, 0.53391713, -0.74534935, -0.00080091, 0.01903772, -0.01917456, 0.00000000, 0.00000000, 0.00000000, 0.00000000
1, 0.3925, 139, 0.58754873, 0.77657348, -0.09786950, 5.06749010, 5.08085346, -7.06297779, 53.52236176, 37.88365936, -58.43320465, -82.10322571, 35.92781067, 147.27401733, 0.00774948, 0.39916134, 0.53389543, -0.74536300, -0.00078350, 0.02550477, -0.01338242, 0.00000000, 0.00000000, 0.00000000, 0.00000000
1, 0.3950, 140, 0.58429044, 0.76813996, -0.10239104, 6.28853703, 5.22854662, -6.92508602, 53.52236176, 37.88365936, -58.43320465, -82.09860229, 35.91245651, 147.25509644, 0.00797775, 0.39916456, 0.53385252, -0.74538946, 0.00225782, 0.03408498, -0.00894720, 0.00000000, 0.00000000, 0.00000000, 0.00000000
1, 0.3975, 141, 0.56904095, 0.76203579, -0.10172008, 7.51084375, 5.23666573, -6.71915102, 53.52236176, 37.88365936, -58.43320465, -82.09088135, 35.89761353, 147.23622131, 0.00821342, 0.39917013, 0.53378797, -0.74543017, 0.01729751, 0.04032463, -0.00974715, 0.00000000, 0.00000000, 0.00000000, 0.00000000
1, 0.4000, 142, 0.56261706, 0.75861126, -0.10505868, 8.59028435, 5.17090845, -6.30393028, 53.81467438, 38.23443222, -58.28704834, -82.08023834, 35.88378906, 147.21774292, 0.00845096, 0.39917928, 0.53370219, -0.74548405, 0.02352595, 0.04386860, -0.00657714, 0.00000000, 0.00000000, 0.00000000, 0.00000000
1, 0.4025, 143, 0.55607623, 0.75395709, -0.10841587, 9.59763050, 5.10667706, -6.02833366, 53.81467438, 38.23443222, -58.28704834, -82.06689453, 35.87062454, 147.19956970, 0.00869205, 0.39919040, 0.53359765, -0.74555022, 0.02988059, 0.04863007, -0.00342541, 0.00000000, 0.00000000, 0.00000000, 0.00000000
1, 0.4050, 144, 0.55607623, 0.75395709, -0.10841587, 9.59763050, 5.10667706, -6.02833366, 53.81467438, 38.23443222, -58.28704834, -82.05355835, 35.85746002, 147.18139648, 0.00893314, 0.39920145, 0.53349310, -0.74561632, 0.02969439, 0.04873736, -0.00363088, 0.00000000, 0.00000000, 0.00000000, 0.00000000
1, 0.4075, 145, 0.55588251, 0.74551994, -0.10304575, 11.54127216, 4.84236431, -5.68857002, 53.81467438, 38.23443222, -58.28704834, -82.03477478, 35.84505463, 147.16418457, 0.00918254, 0.39921170, 0.53335387, -0.74570733, 0.02971257, 0.05726327, -0.00928167, 0.00000000, 0.00000000, 0.00000000, 0.00000000
1, 0.4100, 146, 0.55588251, 0.74551994, -0.10304575, 11.54127216, 4.84236431, -5.68857002, 53.81467438, 38.23443222, -58.28704834, -82.01600647, 35.83264542, 147.14697266, 0.00943195, 0.39922196, 0.53321469, -0.74579829, 0.02953703, 0.05735202, -0.00956222, 0.00000000, 0.00000000, 0.00000000, 0.00000000
1, 0.4125, 147, 0.55920917, 0.74604332, -0.08691449, 11.24949551, 5.32653713, -5.82093143, 54.37006760, 38.35136032, -58.55013275, -81.99886322, 35.82008362, 147.12821960, 0.00968661, 0.39923853, 0.53308117, -0.74588150, 0.02603257, 0.05692196, -0.02595160, 0.00000000, 0.00000000, 0.00000000, 0.00000000
1, 0.4150, 148, 0.55689508, 0.75310409, -0.08276914, 10.66857052, 6.01464033, -5.87964153, 54.37006760, 38.35136032, -58.55013275, -81.98441315, 35.80762482, 147.10733032, 0.00994516, 0.39926577, 0.53295749, -0.74595195, 0.02817035, 0.04995871, -0.03031718, 0.00000000, 0.00000000, 0.00000000, 0.00000000
1, 0.4175, 149, 0.55263513, 0.75678897, -0.08392598, 10.01817513, 6.42402267, -5.87196445, 54.37006760, 38.35136032, -58.55013275, -81.97231293, 35.79533005, 147.08518982, 0.01020268, 0.39929980, 0.53284419, -0.74601114, 0.03225625, 0.04637438, -0.02934750, 0.00000000, 0.00000000, 0.00000000, 0.00000000
1, 0.4200, 150, 0.55082297, 0.75530207, -0.08370063, 9.22747898, 6.41663647, -5.86948013, 54.37006760, 38.35136032, -58.55013275, -81.96217346, 35.78303909, 147.06307983, 0.01045318, 0.39933395, 0.53274369, -0.74606121, 0.03389442, 0.04796535, -0.02973250, 0.00000000, 0.00000000, 0.00000000, 0.00000000
1, 0.4225, 151, 0.55099219, 0.74359846, -0.08192500, 8.72420120, 6.41303492, -5.93782473, 54.37006760, 38.35136032, -58.55013275, -81.95329285, 35.77058411, 147.04095459, 0.01070037, 0.39936730, 0.53265196, -0.74610537, 0.03354883, 0.05977726, -0.03165040, 0.00000000, 0.00000000, 0.00000000, 0.00000000
1, 0.4250, 152, 0.54474628, 0.73303831, -0.07620839, 8.36421585, 6.47891521, -5.93575430, 53.61005402, 38.46828461, -59.13475418, -81.95253754, 35.76062775, 147.01481628, 0.01093084, 0.39943379, 0.53259039, -0.74611032, 0.03965378, 0.07043636, -0.03739184, 0.00000000, 0.00000000, 0.00000000, 0.00000000
1, 0.4275, 153, 0.53739387, 0.72483790, -0.07253075, 8.36222839, 6.75257015, -5.72221661, 53.61005402, 38.46828461, -59.13475418, -81.94510651, 35.74882889, 146.99176025, 0.01117531, 0.39947522, 0.53250253, -0.74614727, 0.04683906, 0.07874125, -0.04119051, 0.00000000, 0.00000000, 0.00000000, 0.00000000
1, 0.4300, 154, 0.52588254, 0.71774060, -0.07860351, 8.78828430, 7.44348145, -5.36454058, 53.61005402, 38.46828461, -59.13475418, -81.93775177, 35.73815536, 146.96673584, 0.01142570, 0.39953193, 0.53240442, -0.74618322, 0.05819923, 0.08593172, -0.03523620, 0.00000000, 0.00000000, 0.00000000, 0.00000000
1, 0.4325, 155, 0.51558506, 0.70906669, -0.08580266, 9.57695103, 7.78826666, -4.80292225, 53.61005402, 38.46828461, -59.13475418, -81.92888641, 35.72900391, 146.94091797, 0.01167783, 0.39960048, 0.53228837, -0.74622530, 0.06836700, 0.09468037, -0.02817447, 0.00000000, 0.00000000, 0.00000000, 0.00000000
1, 0.4350, 156, 0.50467604, 0.70671183, -0.08801593, 10.08212757, 7.64570379, -4.24698591, 53.61005402, 38.46828461, -59.13475418, -81.91836548, 35.72117615, 146.91577148, 0.01192365, 0.39967307, 0.53215927, -0.74627465, 0.07916510, 0.09709316, -0.02611999, 0.00000000, 0.00000000, 0.00000000, 0.00000000
1, 0.4375, 157, 0.49752557, 0.70715797, -0.08713907, 10.01235771, 7.49667120, -3.61931777, 53.31774139, 38.14673996, -58.49166870, -81.90758514, 35.71485138, 146.89135742, 0.01215692, 0.39975044, 0.53202581, -0.74632454, 0.08622599, 0.09668934, -0.02715719, 0.00000000, 0.00000000, 0.00000000, 0.00000000
1, 0.4400, 158, 0.49123368, 0.70998979, -0.08085076, 9.86970425, 7.42059755, -3.27018261, 53.31774139, 38.14673996, -58.49166870, -81.89694214, 35.70937347, 146.86730957, 0.01238237, 0.39983067, 0.53189164, -0.74637353, 0.09244016, 0.09389150, -0.03360274, 0.00000000, 0.00000000, 0.00000000, 0.00000000
1, 0.4425, 159, 0.48629716, 0.70874071, -0.07242815, 9.51161957, 7.34031343, -2.78052020, 53.31774139, 38.14673996, -58.49166870, -81.88692474, 35.70507431, 146.84373474, 0.01259579, 0.39991531, 0.53175902, -0.74641907, 0.09731582, 0.09516394, -0.04217201, 0.00000000, 0.00000000, 0.00000000, 0.00000000
1, 0.4450, 160, 0.48066628, 0.69863153, -0.06365097, 9.15075684, 7.60511780, -2.21622920, 53.31774139, 38.14673996, -58.49166870, -81.87813568, 35.70228195, 146.81959534, 0.01279995, 0.40001094, 0.53162724, -0.74645829, 0.10290712, 0.10528386, -0.05107655, 0.00000000, 0.00000000, 0.00000000, 0.00000000
1, 0.4475, 161, 0.47662258, 0.68266839, -0.05765500, 9.14684582, 8.21507359, -1.36866450, 53.31774139, 38.14673996, -58.49166870, -81.87022400, 35.70178604, 146.79397583, 0.01299734, 0.40012622, 0.53148788, -0.74649227, 0.10694379, 0.12123591, -0.05718425, 0.00000000, 0.00000000, 0.00000000, 0.00000000
1, 0.4500, 162, 0.46758771, 0.66567826, -0.05887417, 9.49888229, 9.24381161, -0.51658428, 53.34697342, 38.17597198, -58.25782013, -81.86304474, 35.70378113, 146.76556396, 0.01319585, 0.40026808, 0.53133512, -0.74652159, 0.11600691, 0.13819170, -0.05606288, 0.00000000, 0.00000000, 0.00000000, 0.00000000
1, 0.4525, 163, 0.45573723, 0.65448153, -0.06207626, 10.06662560, 10.33720970, 0.75530821, 53.34697342, 38.17597198, -58.25782013, -81.85607147, 35.70930862, 146.73439026, 0.01339128, 0.40044224, 0.53116149, -0.74654818, 0.12793577, 0.14931858, -0.05295073, 0.00000000, 0.00000000, 0.00000000, 0.00000000
1, 0.4550, 164, 0.44034705, 0.64470035, -0.07087050, 10.92546272, 11.01677227, 2.09057760, 53.34697342, 38.17597198, -58.25782013, -81.84782410, 35.71838379, 146.70173645, 0.01358034, 0.40064266, 0.53096205, -0.74657911, 0.14345452, 0.15899158, -0.04425903, 0.00000000, 0.00000000, 0.00000000, 0.00000000
1, 0.4575, 165, 0.42408222, 0.63574815, -0.08637112, 11.85932159, 11.28487492, 3.21020222, 53.34697342, 38.17597198, -58.25782013, -81.83744049, 35.73033524, 146.66873169, 0.01376244, 0.40086016, 0.53073746, -0.74661881, 0.15988871, 0.16780248, -0.02888677, 0.00000000, 0.00000000, 0.00000000, 0.00000000
1, 0.4600, 166, 0.41171256, 0.62674803, -0.09723694, 12.87014389, 10.93161011, 4.25120926, 53.34697342, 38.17597198, -58.25782013, -81.82363129, 35.74473572, 146.63726807, 0.01393232, 0.40108347, 0.53048724, -0.74667341, 0.17246243, 0.17662948, -0.01819369, 0.00000000, 0.00000000, 0.00000000, 0.00000000
1, 0.4625, 167, 0.40212828, 0.61874068, -0.10784888, 13.81380653, 10.02267456, 5.35484123, 53.81467438, 38.58520889, -58.98859787, -81.80558777, 35.76155090, 146.60906982, 0.01408196, 0.40130451, 0.53021234, -0.74674720, 0.18228486, 0.18443069, -0.00781035, 0.00000000, 0.00000000, 0.00000000, 0.00000000
1, 0.4650, 168, 0.39012313, 0.61034471, -0.11785082, 14.69124794, 8.42179108, 6.37936640, 53.81467438, 38.58520889, -58.98859787, -81.78223419, 35.78034210, 146.58618164, 0.01420407, 0.40151095, 0.52991456, -0.74684530, 0.19455612, 0.19258982, 0.00189167, 0.00000000, 0.00000000, 0.00000000, 0.00000000
1, 0.4675, 169, 0.37899813, 0.59213191, -0.12886024, 15.71328640, 6.68706989, 7.19178391, 53.81467438, 38.58520889, -58.98859787, -81.75302887, 35.80052567, 146.56896973, 0.01430183, 0.40169814, 0.52959341, -0.74697053, 0.20596686, 0.21053940, 0.01252131, 0.00000000, 0.00000000, 0.00000000, 0.00000000
1, 0.4700, 170, 0.36756226, 0.56158823, -0.13736944, 17.24400330, 4.33061552, 8.20392799, 53.81467438, 38.58520889, -58.98859787, -81.71550751, 35.82238007, 146.55938721, 0.01436929, 0.40185806, 0.52923906, -0.74713433, 0.21771201, 0.24078578, 0.02053713, 0.00000000, 0.00000000, 0.00000000, 0.00000000
1, 0.4725, 171, 0.34525129, 0.52637142, -0.14067343, 18.84435844, 2.31442904, 9.64009953, 53.81467438, 38.58520889, -58.98859787, -81.67001343, 35.84706116, 146.55662537, 0.01440409, 0.40200108, 0.52884656, -0.74733454, 0.24037227, 0.27566016, 0.02324066, 0.00000000, 0.00000000, 0.00000000, 0.00000000
1, 0.4750, 172, 0.31095874, 0.48871994, -0.14093521, 20.22609901, 0.76990622, 11.78278255, 53.20081711, 37.79596710, -59.10552216, -81.61228180, 35.87367249, 146.56240845, 0.01441507, 0.40211388, 0.52839744, -0.74759138, 0.27504116, 0.31292367, 0.02273402, 0.00000000, 0.00000000, 0.00000000, 0.00000000
1, 0.4775, 173, 0.26781067, 0.45650607, -0.13742968, 21.24949646, -0.78895891, 14.62584209, 53.20081711, 37.79596710, -59.10552216, -81.55386353, 35.90955734, 146.57142639, 0.01435384, 0.40226287, 0.52792269, -0.74784780, 0.31869659, 0.34465355, 0.01846510, 0.00000000, 0.00000000, 0.00000000, 0.00000000
1, 0.4800, 174, 0.22725216, 0.42388278, -0.12159380, 22.33881569, -1.52618873, 18.10928917, 53.20081711, 37.79596710, -59.10552216, -81.49044037, 35.95376968, 146.58433533, 0.01423684, 0.40243942, 0.52739966, -0.74812400, 0.35988000, 0.37669683, 0.00180949, 0.00000000, 0.00000000, 0.00000000, 0.00000000
1, 0.4825, 175, 0.19328168, 0.39111805, -0.09367602, 23.42059135, -1.29958522, 21.95553207, 53.20081711, 37.79596710, -59.10552216, -81.42364502, 36.00756454, 146.59838867, 0.01406917, 0.40266341, 0.52682489, -0.74841148, 0.39461020, 0.40877587, -0.02695937, 0.00000000, 0.00000000, 0.00000000, 0.00000000
1, 0.4850, 176, 0.16988620, 0.35695145, -0.05883610, 24.78318977, -0.24164215, 25.95200920, 53.20081711, 37.79596710, -59.10552216, -81.35417938, 36.07162476, 146.61112976, 0.01386036, 0.40295008, 0.52619219, -0.74870622, 0.41890976, 0.44214526, -0.06267004, 0.00000000, 0.00000000, 0.00000000, 0.00000000
1, 0.4875, 177, 0.14681782, 0.32741758, -0.02979141, 26.49613571, 1.98900712, 30.45282173, 53.69775009, 37.85442734, -59.95322800, -81.28313446, 36.14763641, 146.61926270, 0.01361869, 0.40332392, 0.52549082, -0.74900180, 0.44304997, 0.47075507, -0.09258696, 0.00000000, 0.00000000, 0.00000000, 0.00000000
1, 0.4900, 178, 0.11606403, 0.29877317, -0.01391469, 29.06700516, 4.84535885, 35.30901718, 53.69775009, 37.85442734, -59.95322800, -81.20940399, 36.23672867, 146.62107849, 0.01335302, 0.40379909, 0.52470344, -0.74930251, 0.47505859, 0.49833387, -0.10935049, 0.00000000, 0.00000000, 0.00000000, 0.00000000
1, 0.4925, 179, 0.07228860, 0.27342728, -0.00944736, 31.78148651, 7.76789761, 40.44540024, 53.69775009, 37.85442734, -59.95322800, -81.13265228, 36.33961868, 146.61653137, 0.01306075, 0.40437955, 0.52382505, -0.74960917, 0.52028155, 0.52246392, -0.11472163, 0.00000000, 0.00000000, 0.00000000, 0.00000000
1, 0.4950, 180, 0.02619066, 0.24912731, -0.04467343, 34.13861084, 10.47607040, 45.78986359, 53.69775009, 37.85442734, -59.95322800, -81.05330658, 36.45677567, 146.60639954, 0.01273279, 0.40506414, 0.52285933, -0.74991935, 0.56802535, 0.54539251, -0.08040892, 0.00000000, 0.00000000, 0.00000000, 0.00000000
1, 0.4975, 181, -0.04136819, 0.22426529, -0.08194152, 36.35254669, 13.11366272, 51.13384247, 53.69775009, 37.85442734, -59.95322800, -80.97162628, 36.58815384, 146.59095764, 0.01236703, 0.40585148, 0.52180862, -0.75023162, 0.63742703, 0.56872773, -0.04405924, 0.00000000, 0.00000000, 0.00000000, 0.00000000
1, 0.5000, 182, -0.06644165, 0.14325020, -0.09021787, 38.86282730, 14.77692699, 56.95322037, 54.10698700, 36.21747971, -58.90090561, -80.88491058, 36.73458481, 146.57347107, 0.01194716, 0.40673074, 0.52066368, -0.75055766, 0.66455048, 0.64804459, -0.03674111, 0.00000000, 0.00000000, 0.00000000, 0.00000000
1, 0.5025, 183, -0.06644165, 0.14325020, -0.09021787, 38.86282730, 14.77692699, 56.95322037, 54.10698700, 36.21747971, -58.90090561, -80.79809570, 36.88102722, 146.55621338, 0.01152726, 0.40760905, 0.51951754, -0.75088191, 0.66659695, 0.64633965, -0.03769501, 0.00000000, 0.00000000, 0.00000000, 0.00000000
1, 0.5050, 184, -0.11959527, 0.09610512, -0.08606507, 44.95111465, 20.31048012, 74.21360779, 54.10698700, 36.21747971, -58.90090561, -80.70099640, 37.07231522, 146.53082275, 0.01094143, 0.40877083, 0.51811510, -0.75122803, 0.72241777, 0.69128513, -0.04286135, 0.00000000, 0.00000000, 0.00000000, 0.00000000
1, 0.5075, 185, -0.11959527, 0.09610512, -0.08606507, 44.95111465, 20.31048012, 74.21360779, 54.10698700, 36.21747971, -58.90090561, -80.60375977, 37.26362610, 146.50576782, 0.01035556, 0.40993106, 0.51671070, -0.75157130, 0.72507840, 0.68907481, -0.04386811, 0.00000000, 0.00000000, 0.00000000, 0.00000000
1, 0.5100, 186, -0.11169410, -0.05371301, -0.12979977, 54.76745224, 26.10640717, 85.80024719, 54.10698700, 36.21747971, -58.90090561, -80.48909760, 37.48593521, 146.46908569, 0.00973278, 0.41131288, 0.51503807, -0.75197262, 0.72026056, 0.83630842, -0.00131528, 0.00000000, 0.00000000, 0.00000000, 0.00000000
1, 0.5125, 187, -0.09691893, -0.15513828, -0.13358229, 65.17797852, 28.86232185, 92.86753082, 54.19467926, 36.88979721, -59.04706192, -80.35119629, 37.72687531, 146.42805481, 0.00911840, 0.41281468, 0.51312762, -0.75246322, 0.70881683, 0.93488610, 0.00101417, 0.00000000, 0.00000000, 0.00000000, 0.00000000
1, 0.5150, 188, -0.09825964, -0.24818261, -0.12681675, 79.60332489, 33.15708923, 101.34137726, 54.19467926, 36.88979721, -59.04706192, -80.18240356, 37.99059677, 146.37881470, 0.00854283, 0.41447592, 0.51089942, -0.75307274, 0.71379161, 1.02475309, -0.00756624, 0.00000000, 0.00000000, 0.00000000, 0.00000000
1, 0.5175, 189, -0.13067144, -0.30473641, -0.12859373, 96.82459259, 38.63092422, 111.36074066, 54.19467926, 36.88979721, -59.04706192, -79.97737122, 38.28147507, 146.31884766, 0.00801930, 0.41633150, 0.50829166, -0.75381929, 0.75019675, 1.07773399, -0.00802174, 0.00000000, 0.00000000, 0.00000000, 0.00000000
1, 0.5200, 190, -0.19496723, -0.31379420, -0.15230703, 114.11845398, 44.28786850, 122.99096680, 54.19467926, 36.88979721, -59.04706192, -79.73561096, 38.60364151, 146.24882507, 0.00752421, 0.41840076, 0.50528640, -0.75469857, 0.81889653, 1.08276844, 0.01305405, 0.00000000, 0.00000000, 0.00000000, 0.00000000
1, 0.5225, 191, -0.27109203, -0.28965718, -0.19723906, 129.12380981, 48.60012436, 135.10003662, 54.19467926, 36.88979721, -59.04706192, -79.45980835, 38.95777512, 146.17376709, 0.00701414, 0.42066535, 0.50191474, -0.75569391, 0.89983940, 1.05414605, 0.05499437, 0.00000000, 0.00000000, 0.00000000, 0.00000000
1, 0.5250, 192, -0.33194861, -0.26627630, -0.24453568, 140.56016541, 49.77190399, 146.61866760, 55.51008606, 36.88979721, -58.93013763, -79.14481354, 39.33854294, 146.10848999, 0.00644373, 0.42303088, 0.49821401, -0.75682646, 0.96585000, 1.02585125, 0.09888025, 0.00000000, 0.00000000, 0.00000000, 0.00000000
1, 0.5275, 193, -0.36054382, -0.26935723, -0.27922836, 148.78067017, 48.50443268, 157.20550537, 55.51008606, 35.77901077, -58.93013763, -78.80908203, 39.74748993, 146.05158997, 0.00574831, 0.42551452, 0.49429390, -0.75800914, 0.99994898, 1.02360797, 0.13000649, 0.00000000, 0.00000000, 0.00000000, 0.00000000
1, 0.5300, 194, -0.35661826, -0.29533318, -0.29270920, 156.00375366, 46.12306595, 167.57066345, 55.51008606, 35.77901077, -58.93013763, -78.44456482, 40.18091965, 146.01188660, 0.00492271, 0.42805925, 0.49014631, -0.75927454, 1.00182140, 1.04385865, 0.13966523, 0.00000000, 0.00000000, 0.00000000, 0.00000000
1, 0.5325, 195, -0.34550020, -0.32362190, -0.29683095, 163.44502258, 43.52720261, 178.49174500, 55.51008606, 35.77901077, -58.93013763, -78.04927826, 40.63995361, 145.99134827, 0.00395780, 0.43066514, 0.48576030, -0.76062399, 0.99680352, 1.06599271, 0.13970198, 0.00000000, 0.00000000, 0.00000000, 0.00000000
1, 0.5350, 196, -0.33194426, -0.34080872, -0.28551307, 171.10267639, 40.98941422, 190.25219727, 55.51008606, 35.77901077, -58.93013763, -77.62147522, 41.12649155, 145.99142456, 0.00284268, 0.43333983, 0.48112220, -0.76205641, 0.98966765, 1.07655692, 0.12403703, 0.00000000, 0.00000000, 0.00000000, 0.00000000
1, 0.5375, 197, -0.32548472, -0.34116355, -0.27575594, 177.96720886, 38.72228622, 201.94891357, 55.51008606, 35.77901077, -58.93013763, -77.16268921, 41.64031601, 146.01239014, 0.00157410, 0.43608466, 0.47624335, -0.76355743, 0.98993683, 1.06981468, 0.10971105, 0.00000000, 0.00000000, 0.00000000, 0.00000000
1, 0.5400, 198, -0.32201737, -0.33077580, -0.27890334, 183.46479797, 36.45448685, 212.88081360, 56.00701523, 34.22975540, -59.63168716, -76.67559814, 42.17933655, 146.05496216, 0.00015211, 0.43888912, 0.47115156, -0.76510954, 0.99347055, 1.05187440, 0.10811818, 0.00000000, 0.00000000, 0.00000000, 0.00000000
1, 0.5425, 199, -0.32059315, -0.32168064, -0.27827823, 188.17584229, 33.56714630, 223.10743713, 56.00701523, 34.22975540, -59.63168716, -76.15994263, 42.74120331, 146.12193298, -0.00142516, 0.44173306, 0.46586457, -0.76670736, 0.99928117, 1.03478527, 0.10259394, 0.00000000, 0.00000000, 0.00000000, 0.00000000
1, 0.5450, 200, -0.32510227, -0.30960986, -0.27270752, 191.51748657, 31.02092552, 232.85360718, 56.00701523, 34.22975540, -59.63168716, -75.61887360, 43.32466888, 146.21319580, -0.00315907, 0.44461486, 0.46040794, -0.76833093, 1.01123405, 1.01429212, 0.09202307, 0.00000000, 0.00000000, 0.00000000, 0.00000000
1, 0.5475, 201, -0.33607700, -0.28771016, -0.26880607, 193.20462036, 28.59883499, 242.53692627, 56.00701523, 34.22975540, -59.63168716, -75.05549622, 43.92935181, 146.32968140, -0.00506310, 0.44753334, 0.45480824, -0.76995963, 1.02984762, 0.98354626, 0.08307926, 0.00000000, 0.00000000, 0.00000000, 0.00000000
1, 0.5500, 202, -0.35006088, -0.27245304, -0.26561108, 192.58959961, 26.30141830, 251.73985291, 56.00701523, 34.22975540, -59.63168716, -74.47476196, 44.55384827, 146.47195435, -0.00715028, 0.45048344, 0.44910732, -0.77156734, 1.05164003, 0.95904398, 0.07487650, 0.00000000, 0.00000000, 0.00000000, 0.00000000
1, 0.5525, 203, -0.36640748, -0.27550867, -0.26354706, 189.95803833, 24.40502739, 260.67507935, 56.65010071, 30.42969894, -59.33937454, -73.88140106, 45.19746780, 146.63984680, -0.00943195, 0.45346665, 0.44334060, -0.77312881, 1.07594693, 0.95247328, 0.06791285, 0.00000000, 0.00000000, 0.00000000, 0.00000000
1, 0.5550, 204, -0.37906021, -0.29840669, -0.26546025, 185.88076782, 23.46452713, 269.62802124, 56.65010071, 30.42969894, -59.33937454, -73.27993011, 45.86061478, 146.83152771, -0.01191359, 0.45649683, 0.43753150, -0.77461922, 1.09670782, 0.96537030, 0.06510659, 0.00000000, 0.00000000, 0.00000000, 0.00000000
1, 0.5575, 205, -0.38915014, -0.33129680, -0.27278617, 181.51016235, 23.27746582, 278.94180298, 56.65010071, 30.42969894, -59.33937454, -72.67126465, 46.54443741, 147.04609680, -0.01459730, 0.45958787, 0.43168065, -0.77602690, 1.11505795, 0.98787093, 0.06792453, 0.00000000, 0.00000000, 0.00000000, 0.00000000
1, 0.5600, 206, -0.39051187, -0.36863136, -0.28459710, 177.56781006, 23.50546646, 288.53958130, 56.65010071, 30.42969894, -59.33937454, -72.05364227, 47.24966812, 147.28401184, -0.01748010, 0.46274707, 0.42577708, -0.77735031, 1.12483025, 1.01440954, 0.07543902, 0.00000000, 0.00000000, 0.00000000, 0.00000000
1, 0.5625, 207, -0.38712367, -0.41051760, -0.29465449, 174.20330811, 23.52013779, 298.83197021, 56.65010071, 30.42969894, -59.33937454, -71.42282104, 47.97753143, 147.54844666, -0.02057029, 0.46597490, 0.41980281, -0.77859479, 1.13000584, 1.04505968, 0.08138847, 0.00000000, 0.00000000, 0.00000000, 0.00000000
1, 0.5650, 208, -0.38933149, -0.43611452, -0.29357544, 171.42012024, 22.90605927, 309.81332397, 57.55627060, 27.62350082, -60.18708038, -70.77304840, 48.72882843, 147.84448242, -0.02387971, 0.46926436, 0.41373935, -0.77976954, 1.14092743, 1.05894542, 0.07635400, 0.00000000, 0.00000000, 0.00000000, 0.00000000
1, 0.5675, 209, -0.40032354, -0.44116917, -0.28752044, 167.70597839, 21.93047333, 321.21246338, 57.55627060, 27.62350082, -60.18708038, -70.10289001, 49.50384903, 148.17633057, -0.02742840, 0.47260937, 0.40759650, -0.78086698, 1.16077316, 1.05180085, 0.06650946, 0.00000000, 0.00000000, 0.00000000, 0.00000000
1, 0.5700, 210, -0.40908977, -0.42942262, -0.28646728, 162.41731262, 20.04661560, 332.18478394, 57.55627060, 27.62350082, -60.18708038, -69.41142273, 50.30035019, 148.54943848, -0.03123354, 0.47598642, 0.40140340, -0.78188026, 1.17849302, 1.02738786, 0.06184272, 0.00000000, 0.00000000, 0.00000000, 0.00000000
1, 0.5725, 211, -0.40156916, -0.43025663, -0.28588447, 156.05802917, 17.06136322, 342.09658813, 57.55627060, 27.62350082, -60.18708038, -68.69632721, 51.11430740, 148.96931458, -0.03529784, 0.47936341, 0.39518720, -0.78281021, 1.17996895, 1.01512885, 0.05780886, 0.00000000, 0.00000000, 0.00000000, 0.00000000
1, 0.5750, 212, -0.36524197, -0.47017172, -0.26824030, 150.05595398, 14.10253525, 350.53884888, 57.55627060, 27.62350082, -60.18708038, -67.94604492, 51.94219589, 149.44403076, -0.03960543, 0.48270708, 0.38892215, -0.78368676, 1.15263128, 1.04152250, 0.03677336, 0.00000000, 0.00000000, 0.00000000, 0.00000000
1, 0.5775, 213, -0.30094695, -0.54945409, -0.23097135, 145.83827209, 12.55623436, 358.29498291, 57.99473953, 24.26191139, -60.18708038, -67.17572021, 52.78208160, 149.95639038, -0.04408740, 0.48607054, 0.38265270, -0.78445441, 1.09728754, 1.10694218, -0.00365338, 0.00000000, 0.00000000, 0.00000000, 0.00000000
1, 0.5800, 214, -0.24387933, -0.61998194, -0.20650648, 144.04496765, 13.57697773, 367.19711304, 57.99473953, 24.26191139, -60.18708038, -66.37322235, 53.63904953, 150.50877380, -0.04872900, 0.48948875, 0.37629268, -0.78513068, 1.04917741, 1.16315532, -0.03110275, 0.00000000, 0.00000000, 0.00000000, 0.00000000
1, 0.5825, 215, -0.21280888, -0.63731974, -0.21343419, 143.32232666, 15.88814926, 378.35128784, 57.99473953, 24.26191139, -60.18708038, -65.53292847, 54.51902008, 151.10391235, -0.05354668, 0.49300012, 0.36979976, -0.78570479, 1.02711725, 1.16562986, -0.02696406, 0.00000000, 0.00000000, 0.00000000, 0.00000000
1, 0.5850, 216, -0.19030610, -0.61401063, -0.23719633, 141.24645996, 16.91831589, 390.89132690, 57.99473953, 24.26191139, -60.18708038, -64.64735413, 55.42312622, 151.75413513, -0.05858901, 0.49658829, 0.36317912, -0.78617328, 1.01367164, 1.12686503, -0.00580578, 0.00000000, 0.00000000, 0.00000000, 0.00000000
1, 0.5875, 217, -0.15450029, -0.58106452, -0.25998279, 137.16978455, 16.35150146, 402.50701904, 57.99473953, 24.26191139, -60.18708038, -63.71177292, 56.34674072, 152.46995544, -0.06387427, 0.50021172, 0.35647124, -0.78653455, 0.98690659, 1.07791710, 0.01454978, 0.00000000, 0.00000000, 0.00000000, 0.00000000
1, 0.5900, 218, -0.08284350, -0.56746715, -0.27641803, 131.94602966, 15.04638577, 411.94830322, 58.52090073, 19.90645981, -60.45016098, -62.72369766, 57.28307343, 153.25640869, -0.06938308, 0.50383508, 0.34971696, -0.78678745, 0.92419457, 1.04785788, 0.02872127, 0.00000000, 0.00000000, 0.00000000, 0.00000000
1, 0.5925, 219, 0.02450480, -0.56858099, -0.29278499, 126.71695709, 14.11272049, 419.78604126, 58.52090073, 19.90645981, -60.45016098, -61.68052292, 58.22786713, 154.11521912, -0.07508474, 0.50744861, 0.34293321, -0.78692758, 0.82564396, 1.03210497, 0.04299955, 0.00000000, 0.00000000, 0.00000000, 0.00000000
1, 0.5950, 220, 0.15046142, -0.56244463, -0.38924056, 121.91486359, 13.60730076, 427.06860352, 58.52090073, 19.90645981, -60.45016098, -60.57671738, 59.17924500, 155.05023193, -0.08096139, 0.51105309, 0.33611867, -0.78695256, 0.70831287, 1.00871253, 0.13754252, 0.00000000, 0.00000000, 0.00000000, 0.00000000
1, 0.5975, 221, 0.41807491, -0.50554913, -0.44720581, 117.69325256, 12.41816998, 434.13024902, 58.52090073, 19.90645981, -60.45016098, -59.40105057, 60.13460541, 156.07156372, -0.08700734, 0.51463282, 0.32926378, -0.78687239, 0.44912255, 0.93417263, 0.19372895, 0.00000000, 0.00000000, 0.00000000, 0.00000000
1, 0.6000, 222, 0.55260617, -0.47877854, -0.49631706, 113.27400970, 9.52248287, 443.89706421, 58.52090073, 19.90645981, -60.45016098, -58.13213730, 61.09585953, 157.20277405, -0.09328282, 0.51817411, 0.32233730, -0.78669727, 0.32282323, 0.88926882, 0.24112847, 0.00000000, 0.00000000, 0.00000000, 0.00000000
1, 0.6025, 223, 0.55260617, -0.47877854, -0.49631706, 113.27400970, 9.52248287, 443.89706421, 58.14089203, 14.44022179, -59.31014252, -56.78334808, 62.04417419, 158.41445923, -0.09954898, 0.52166367, 0.31537861, -0.78644353, 0.33070302, 0.87097144, 0.23951039, 0.00000000, 0.00000000, 0.00000000, 0.00000000
1, 0.6050, 224, 0.79886049, -0.46393675, -0.53471982, 100.83349609, -6.51962948, 448.12643433, 58.14089203, 14.44022179, -59.31014252, -55.30294418, 62.96436691, 159.79913330, -0.10612968, 0.52482778, 0.30851880, -0.78619879, 0.09186333, 0.83765155, 0.27597588, 0.00000000, 0.00000000, 0.00000000, 0.00000000
1, 0.6075, 225, 0.79886049, -0.46393675, -0.53471982, 100.83349609, -6.51962948, 448.12643433, 58.14089203, 14.44022179, -59.31014252, -53.72470474, 63.86716080, 161.28201294, -0.11269972, 0.52793920, 0.30162802, -0.78587514, 0.09891485, 0.81902361, 0.27411827, 0.00000000, 0.00000000, 0.00000000, 0.00000000
1, 0.6100, 226, 0.99140424, -0.43257987, -0.55895138, 92.57945251, -16.13689232, 451.45004272, 58.14089203, 14.44022179, -59.31014252, -52.01041031, 64.74265289, 162.92750549, -0.11947370, 0.53083402, 0.29478639, -0.78552043, -0.08700393, 0.76886010, 0.29631889, 0.00000000, 0.00000000, 0.00000000, 0.00000000
1, 0.6125, 227, 1.08608902, -0.40019658, -0.59213161, 88.52164459, -20.75912476, 452.30984497, 58.14089203, 14.44022179, -59.31014252, -50.16701889, 65.59000397, 164.71479797, -0.12632704, 0.53359079, 0.28796247, -0.78511143, -0.17547762, 0.71754789, 0.32741466, 0.00000000, 0.00000000, 0.00000000, 0.00000000
1, 0.6575, 228, 2.30062556, 0.16610019, -0.41560620, 81.57905579, -54.78630829, 321.85247803, 50.39462280, -5.08623219, -56.47471619, -0.62696910, 71.63130188, -146.53936768, -0.23649573, 0.55912292, 0.17270045, -0.77564549, -1.35157740, -0.16265185, 0.10049394, 0.00000000, 0.00000000, 0.00000000, 0.00000000
1, 0.6600, 229, 2.32405186, 0.18728252, -0.38465834, 79.22397614, -50.25468445, 309.75210571, 50.39462280, -5.08623219, -56.47471619, 1.88998055, 71.49711609, -144.09507751, -0.24095431, 0.55983442, 0.16731796, -0.77493954, -1.37574458, -0.19774897, 0.06747799, 0.00000000, 0.00000000, 0.00000000, 0.00000000
1, 0.6625, 230, 2.35243988, 0.20718986, -0.35752827, 76.72553253, -45.85519409, 297.16073608, 50.39462280, -5.08623219, -56.47471619, 4.27043772, 71.34270477, -141.78613281, -0.24520291, 0.56053436, 0.16214658, -0.77419972, -1.40499139, -0.23101157, 0.03850875, 0.00000000, 0.00000000, 0.00000000, 0.00000000
1, 0.6650, 231, 2.37901068, 0.21872254, -0.33858773, 74.23068237, -41.87221909, 284.63366699, 49.34229660, -7.42472935, -54.54545212, 6.51494932, 71.17156219, -139.61192322, -0.24924561, 0.56121927, 0.15718472, -0.77343553, -1.43252158, -0.25534093, 0.01793593, 0.00000000, 0.00000000, 0.00000000, 0.00000000
1, 0.6675, 232, 2.39834476, 0.22341265, -0.31631559, 71.74041748, -38.44315338, 272.09912109, 49.34229660, -7.42472935, -54.54545212, 8.62463379, 70.98665619, -137.57135010, -0.25308552, 0.56188303, 0.15243068, -0.77265781, -1.45290208, -0.27226806, -0.00578916, 0.00000000, 0.00000000, 0.00000000, 0.00000000
1, 0.6700, 233, 2.40761781, 0.22817704, -0.29389951, 69.68544006, -35.43097687, 259.90716553, 49.34229660, -7.42472935, -54.54545212, 10.60511589, 70.79077911, -135.65974426, -0.25672585, 0.56252503, 0.14787175, -0.77187526, -1.46329451, -0.28872934, -0.02949959, 0.00000000, 0.00000000, 0.00000000, 0.00000000
1, 0.6725, 234, 2.41091490, 0.23487724, -0.27987319, 67.91574860, -32.07651520, 248.13853455, 49.34229660, -7.42472935, -54.54545212, 12.46384239, 70.58813477, -133.87014771, -0.26017028, 0.56315678, 0.14350086, -0.77108586, -1.46776116, -0.30660766, -0.04465070, 0.00000000, 0.00000000, 0.00000000, 0.00000000
1, 0.6750, 235, 2.41273975, 0.24394591, -0.26861811, 65.92800140, -28.44601822, 236.30444336, 49.34229660, -7.42472935, -54.54545212, 14.20313740, 70.38354492, -132.19956970, -0.26341656, 0.56378800, 0.13933064, -0.77028692, -1.47077906, -0.32631895, -0.05684219, 0.00000000, 0.00000000, 0.00000000, 0.00000000
1, 0.6775, 236, 2.41517353, 0.24864303, -0.26097494, 63.50885391, -24.81845093, 224.40179443, 48.31920624, -8.38935947, -53.66851807, 15.82883072, 70.17823792, -130.64128113, -0.26647845, 0.56441063, 0.13535884, -0.76948553, -1.47442186, -0.34113625, -0.06526254, 0.00000000, 0.00000000, 0.00000000, 0.00000000
1, 0.6800, 237, 2.41507339, 0.24758796, -0.25598082, 60.29497528, -20.71360397, 212.50820923, 48.31920624, -8.38935947, -53.66851807, 17.34364891, 69.97693634, -129.19038391, -0.26936147, 0.56503433, 0.13160793, -0.76867414, -1.47551870, -0.34965768, -0.07085028, 0.00000000, 0.00000000, 0.00000000, 0.00000000
1, 0.6825, 238, 2.41316342, 0.23607054, -0.25933036, 56.64782333, -16.33913422, 200.82951355, 48.31920624, -8.38935947, -53.66851807, 18.75378799, 69.78253937, -127.83942413, -0.27207512, 0.56566399, 0.12808496, -0.76785004, -1.47477603, -0.34717676, -0.06790669, 0.00000000, 0.00000000, 0.00000000, 0.00000000
1, 0.6850, 239, 2.41220641, 0.22050722, -0.27178639, 53.35563278, -11.34585953, 189.64762878, 48.31920624, -8.38935947, -53.66851807, 20.06995010, 69.59822083, -126.57825470, -0.27462280, 0.56631535, 0.12478224, -0.76700640, -1.47493565, -0.34013593, -0.05564640, 0.00000000, 0.00000000, 0.00000000, 0.00000000
1, 0.6875, 240, 2.41340256, 0.21234083, -0.28498900, 50.06299210, -6.15805387, 179.30764771, 48.31920624, -8.38935947, -53.66851807, 21.30292892, 69.42546844, -125.39562225, -0.27701917, 0.56699568, 0.12169124, -0.76613808, -1.47718692, -0.34001359, -0.04242536, 0.00000000, 0.00000000, 0.00000000, 0.00000000
1, 0.6900, 241, 2.41321945, 0.21368095, -0.30146474, 46.05666733, -1.53635573, 169.31204224, 47.55919266, -9.32475853, -53.20081711, 22.45623589, 69.26413727, -124.28615570, -0.27928147, 0.56769371, 0.11881690, -0.76525056, -1.47799730, -0.34892422, -0.02574820, 0.00000000, 0.00000000, 0.00000000, 0.00000000
1, 0.6925, 242, 2.41362953, 0.21774353, -0.31899983, 41.41134644, 2.17481685, 159.58595276, 47.55919266, -9.32475853, -53.20081711, 23.53160667, 69.11326599, -123.24649048, -0.28142542, 0.56839222, 0.11616153, -0.76435363, -1.47934270, -0.36008659, -0.00787371, 0.00000000, 0.00000000, 0.00000000, 0.00000000
1, 0.6950, 243, 2.41108584, 0.21627806, -0.35506532, 36.77283478, 5.05623722, 149.77861023, 47.55919266, -9.32475853, -53.20081711, 24.52991486, 68.97233582, -122.27590179, -0.28345266, 0.56907874, 0.11372140, -0.76346022, -1.47767901, -0.36524835, 0.02863164, 0.00000000, 0.00000000, 0.00000000, 0.00000000
1, 0.6975, 244, 2.40190935, 0.21961242, -0.37638003, 31.99848366, 7.03183270, 140.23921204, 47.55919266, -9.32475853, -53.20081711, 25.45296478, 68.84016418, -121.37229919, -0.28537241, 0.56973886, 0.11149025, -0.76258129, -1.46933246, -0.37474722, 0.05044484, 0.00000000, 0.00000000, 0.00000000, 0.00000000
1, 0.7000, 245, 2.39071584, 0.20918860, -0.39912319, 26.71499062, 8.30479717, 122.22920990, 47.55919266, -9.32475853, -53.20081711, 26.25142097, 68.72557068, -120.58742523, -0.28705260, 0.57033855, 0.10957781, -0.76177925, -1.45886302, -0.36967480, 0.07370986, 0.00000000, 0.00000000, 0.00000000, 0.00000000
1, 0.7025, 246, 2.39071584, 0.20918860, -0.39912319, 26.71499062, 8.30479717, 122.22920990, 47.55919266, -9.32475853, -53.20081711, 27.04134560, 68.60708618, -119.81109619, -0.28873065, 0.57093394, 0.10766456, -0.76097149, -1.45961523, -0.37502170, 0.07423760, 0.00000000, 0.00000000, 0.00000000, 0.00000000
1, 0.7050, 247, 2.38080120, 0.14736737, -0.42082289, 13.33845329, 6.03232145, 104.68715668, 47.82227325, -9.96784592, -52.20695496, 27.68403435, 68.50019073, -119.15643311, -0.29028755, 0.57136244, 0.10617685, -0.76026618, -1.45038283, -0.31764081, 0.09627998, 0.00000000, 0.00000000, 0.00000000, 0.00000000
1, 0.7075, 248, 2.38080120, 0.14736737, -0.42082289, 13.33845329, 6.03232145, 104.68715668, 47.82227325, -9.96784592, -52.20695496, 28.32028961, 68.39061737, -118.50819397, -0.29184291, 0.57178795, 0.10468860, -0.75955695, -1.45108509, -0.32207799, 0.09662515, 0.00000000, 0.00000000, 0.00000000, 0.00000000
1, 0.7100, 249, 2.34911394, 0.12113205, -0.46221799, 8.22549152, 4.68881559, 90.20804596, 47.82227325, -9.96784592, -52.20695496, 28.85367584, 68.29301453, -117.95641327, -0.29322380, 0.57212293, 0.10345663, -0.75894123, -1.42002654, -0.29961711, 0.13827381, 0.00000000, 0.00000000, 0.00000000, 0.00000000
1, 0.7125, 250, 2.33640957, 0.12183456, -0.48979780, 5.57110691, 2.90111303, 83.40830231, 47.82227325, -9.96784592, -52.20695496, 29.33304977, 68.19797516, -117.45527649, -0.29452825, 0.57239389, 0.10234169, -0.75838280, -1.40793705, -0.30377850, 0.16601503, 0.00000000, 0.00000000, 0.00000000, 0.00000000
1, 0.7150, 251, 2.33280420, 0.12412345, -0.51358396, 2.20288444, 0.48575625, 76.46247864, 47.82227325, -9.96784592, -52.20695496, 29.75480461, 68.10475159, -117.00682068, -0.29576439, 0.57258600, 0.10135338, -0.75788933, -1.40493727, -0.30919522, 0.18983838, 0.00000000, 0.00000000, 0.00000000, 0.00000000
1, 0.7175, 252, 2.33674526, 0.12413944, -0.53069937, -1.30250132, -2.75849938, 69.29605865, 47.38380432, -9.12014008, -51.50540543, 30.11569405, 68.01233673, -116.61423492, -0.29693219, 0.57268459, 0.10049137, -0.75747287, -1.40948093, -0.31199753, 0.20683163, 0.00000000, 0.00000000, 0.00000000, 0.00000000
1, 0.7200, 253, 2.34276700, 0.12214637, -0.54418397, -5.09577703, -5.93839931, 62.27133179, 47.38380432, -9.12014008, -51.50540543, 30.41670418, 67.92105865, -116.27577209, -0.29803765, 0.57268941, 0.09975900, -0.75713176, -1.41610026, -0.31245095, 0.22003400, 0.00000000, 0.00000000, 0.00000000, 0.00000000
1, 0.7225, 254, 2.35279489, 0.12232700, -0.55361098, -8.88847542, -9.18753815, 55.24565506, 47.38380432, -9.12014008, -51.50540543, 30.65837288, 67.83108521, -115.99091339, -0.29908103, 0.57259965, 0.09915576, -0.75686747, -1.42671990, -0.31473893, 0.22901544, 0.00000000, 0.00000000, 0.00000000, 0.00000000
1, 0.7250, 255, 2.36478281, 0.11831516, -0.56151754, -12.53856468, -12.29685879, 48.22141647, 47.38380432, -9.12014008, -51.50540543, 30.84047318, 67.74388123, -115.76009369, -0.30005461, 0.57242006, 0.09868762, -0.75667918, -1.43928313, -0.31248009, 0.23632547, 0.00000000, 0.00000000, 0.00000000, 0.00000000
1, 0.7275, 256, 2.38044167, 0.10884967, -0.56511599, -15.32261372, -15.81354618, 41.18881989, 47.38380432, -9.12014008, -51.50540543, 30.96807861, 67.65706635, -115.58077240, -0.30095980, 0.57214707, 0.09832262, -0.75657368, -1.45551693, -0.30445954, 0.23915517, 0.00000000, 0.00000000, 0.00000000, 0.00000000
1, 0.7300, 257, 2.39044142, 0.09835485, -0.55869853, -16.88692093, -18.97921944, 34.57663727, 48.49459076, -10.31861973, -51.94387436, 31.04639053, 67.57186890, -115.45042419, -0.30178186, 0.57179677, 0.09804510, -0.75654697, -1.46608281, -0.29511911, 0.23182732, 0.00000000, 0.00000000, 0.00000000, 0.00000000
1, 0.7325, 258, 2.38950157, 0.09725935, -0.55113709, -18.09705544, -21.45465660, 28.32236099, 48.49459076, -10.31861973, -51.94387436, 31.08088875, 67.48939514, -115.36413574, -0.30252087, 0.57138389, 0.09784918, -0.75658911, -1.46569300, -0.29490727, 0.22324514, 0.00000000, 0.00000000, 0.00000000, 0.00000000
1, 0.7350, 259, 2.38623619, 0.10145389, -0.54458976, -19.31090355, -23.44872856, 22.28444099, 48.49459076, -10.31861973, -51.94387436, 31.07464981, 67.41041565, -115.31863403, -0.30317938, 0.57091683, 0.09773536, -0.75669295, -1.46295643, -0.29972309, 0.21558625, 0.00000000, 0.00000000, 0.00000000, 0.00000000
1, 0.7375, 260, 2.38464713, 0.10828610, -0.54142696, -20.53195000, -24.67239571, 15.69747066, 48.49459076, -10.31861973, -51.94387436, 31.02766800, 67.33735657, -115.31390381, -0.30374676, 0.57040709, 0.09771556, -0.75685233, -1.46185803, -0.30689222, 0.21125212, 0.00000000, 0.00000000, 0.00000000, 0.00000000
1, 0.7400, 261, 2.38921905, 0.11607870, -0.54327220, -21.75735474, -25.40810394, 8.90731049, 48.49459076, -10.31861973, -51.94387436, 30.94072914, 67.27143097, -115.34918976, -0.30421865, 0.56986225, 0.09779558, -0.75706291, -1.46687353, -0.31472933, 0.21188602, 0.00000000, 0.00000000, 0.00000000, 0.00000000
1, 0.7425, 262, 2.39995623, 0.12651247, -0.54728919, -23.05841637, -25.72576332, 1.91324699, 49.19614029, -10.08477020, -52.17772675, 30.81418037, 67.21378326, -115.42391205, -0.30459172, 0.56928813, 0.09798186, -0.75732058, -1.47800004, -0.32490599, 0.21466804, 0.00000000, 0.00000000, 0.00000000, 0.00000000
1, 0.7450, 263, 2.40923882, 0.14081702, -0.54733360, -24.50403023, -25.97333145, -5.21927357, 49.19614029, -10.08477020, -52.17772675, 30.64736366, 67.16462708, -115.53842926, -0.30486527, 0.56868488, 0.09827892, -0.75762528, -1.48761547, -0.33864444, 0.21345603, 0.00000000, 0.00000000, 0.00000000, 0.00000000
1, 0.7475, 264, 2.42035723, 0.15469532, -0.54274482, -26.88564110, -26.15050316, -12.97724152, 49.19614029, -10.08477020, -52.17772675, 30.43504333, 67.12480927, -115.69587708, -0.30504030, 0.56804579, 0.09871035, -0.75797808, -1.49900389, -0.35160851, 0.20758429, 0.00000000, 0.00000000, 0.00000000, 0.00000000
1, 0.7500, 265, 2.42728615, 0.15610169, -0.53565001, -29.41439247, -26.04108429, -21.43024445, 49.19614029, -10.08477020, -52.17772675, 30.17415428, 67.09562683, -115.89925385, -0.30510640, 0.56737298, 0.09928899, -0.75837970, -1.50613105, -0.35172254, 0.19919086, 0.00000000, 0.00000000, 0.00000000, 0.00000000
1, 0.7525, 266, 2.42767906, 0.15295595, -0.53044444, -31.22784424, -25.57217407, -30.30035019, 49.19614029, -10.08477020, -52.17772675, 29.86524200, 67.07818604, -116.14987946, -0.30504680, 0.56667602, 0.10001044, -0.75882977, -1.50664210, -0.34689963, 0.19269204, 0.00000000, 0.00000000, 0.00000000, 0.00000000
1, 0.7550, 267, 2.42105293, 0.14585300, -0.52589613, -32.46848679, -24.75828934, -38.74801254, 48.28997421, -10.84478188, -52.03157043, 29.51260567, 67.07239532, -116.44461823, -0.30486056, 0.56596512, 0.10086216, -0.75932235, -1.50005579, -0.33776018, 0.18687546, 0.00000000, 0.00000000, 0.00000000, 0.00000000
1, 0.7575, 268, 2.41336679, 0.13026069, -0.52123117, -33.06487274, -23.59437370, -47.05315018, 48.28997421, -10.84478188, -52.03157043, 29.11913109, 67.07856750, -116.78208160, -0.30454099, 0.56525028, 0.10183388, -0.75985318, -1.49232721, -0.31978691, 0.18098712, 0.00000000, 0.00000000, 0.00000000, 0.00000000
1, 0.7600, 269, 2.39823556, 0.10913805, -0.50184977, -32.36825943, -22.21944618, -54.80013657, 48.28997421, -10.84478188, -52.03157043, 28.69094276, 67.09614563, -117.15909576, -0.30408075, 0.56454450, 0.10289851, -0.76041853, -1.47707653, -0.29598042, 0.16044694, 0.00000000, 0.00000000, 0.00000000, 0.00000000
1, 0.7625, 270, 2.37009859, 0.09936650, -0.48092377, -31.02832794, -20.35820770, -62.26286316, 48.28997421, -10.84478188, -52.03157043, 28.23180199, 67.12558746, -117.57328033, -0.30347532, 0.56386048, 0.10404493, -0.76101166, -1.44873965, -0.28324324, 0.13845170, 0.00000000, 0.00000000, 0.00000000, 0.00000000
1, 0.7650, 271, 2.32869911, 0.09760937, -0.46595779, -29.47661781, -17.94874573, -69.22927094, 48.28997421, -10.84478188, -52.03157043, 27.74552155, 67.16719055, -118.02101135, -0.30272883, 0.56320935, 0.10526696, -0.76162285, -1.40705824, -0.27826136, 0.12252960, 0.00000000, 0.00000000, 0.00000000, 0.00000000
1, 0.7675, 272, 2.28411007, 0.10253550, -0.45515987, -28.28662300, -15.26568699, -76.19079590, 48.84536743, -10.66939449, -51.76848984, 27.23104477, 67.22125244, -118.50241852, -0.30184495, 0.56259298, 0.10657217, -0.76224744, -1.36210346, -0.27969849, 0.11089680, 0.00000000, 0.00000000, 0.00000000, 0.00000000
1, 0.7700, 273, 2.24438071, 0.10234979, -0.44640535, -27.52776337, -12.65150452, -83.43159485, 48.84536743, -10.66939449, -51.76848984, 26.68457222, 67.28761292, -119.02034760, -0.30082422, 0.56200629, 0.10797045, -0.76288670, -1.32192624, -0.27574155, 0.10142267, 0.00000000, 0.00000000, 0.00000000, 0.00000000
1, 0.7725, 274, 2.20589805, 0.09439685, -0.43569493, -27.41238022, -10.45878887, -90.67600250, 48.84536743, -10.66939449, -51.76848984, 26.10218811, 67.36497498, -119.57723999, -0.29967514, 0.56143755, 0.10946959, -0.76354373, -1.28292322, -0.26372489, 0.09008630, 0.00000000, 0.00000000, 0.00000000, 0.00000000
1, 0.7750, 275, 2.16282439, 0.08611932, -0.42094752, -27.29667854, -8.26936817, -97.71063995, 48.84536743, -10.66939449, -51.76848984, 25.48203659, 67.45391846, -120.17475891, -0.29839388, 0.56089091, 0.11107600, -0.76421511, -1.23925328, -0.25108021, 0.07482041, 0.00000000, 0.00000000, 0.00000000, 0.00000000
1, 0.7775, 276, 2.11802840, 0.07975396, -0.41154402, -27.82957840, -5.81563282, -104.31993103, 48.84536743, -10.66939449, -51.76848984, 24.82753181, 67.55161285, -120.80786133, -0.29700840, 0.56035841, 0.11277836, -0.76489586, -1.19380498, -0.24008891, 0.06498490, 0.00000000, 0.00000000, 0.00000000, 0.00000000
1, 0.7800, 277, 2.07712340, 0.06959993, -0.40245092, -28.64968491, -3.36787820, -110.71855927, 48.96229172, -10.14323330, -52.11926270, 24.13610649, 67.65864563, -121.47823334, -0.29551840, 0.55984241, 0.11458781, -0.76558161, -1.15218806, -0.22503479, 0.05555861, 0.00000000, 0.00000000, 0.00000000, 0.00000000
1, 0.7825, 278, 2.03889418, 0.05433606, -0.39625204, -29.54250526, -0.78561509, -116.90528870, 48.96229172, -10.14323330, -52.11926270, 23.40763474, 67.77468109, -122.18567657, -0.29392755, 0.55934459, 0.11650363, -0.76626825, -1.11319089, -0.20460352, 0.04913107, 0.00000000, 0.00000000, 0.00000000, 0.00000000
1, 0.7850, 279, 2.00319386, 0.04266408, -0.39110312, -30.00030136, 1.44570065, -122.53868103, 48.96229172, -10.14323330, -52.11926270, 22.64396667, 67.89782715, -122.92928314, -0.29224038, 0.55886281, 0.11850932, -0.76695734, -1.07667994, -0.18752551, 0.04384721, 0.00000000, 0.00000000, 0.00000000, 0.00000000
1, 0.7875, 280, 1.96578181, 0.03625369, -0.38477036, -29.95612335, 3.88393664, -127.82121277, 48.96229172, -10.14323330, -52.11926270, 21.84745407, 68.02779388, -123.70777130, -0.29045561, 0.55840403, 0.12059329, -0.76764441, -1.03841674, -0.17549138, 0.03748579, 0.00000000, 0.00000000, 0.00000000, 0.00000000
1, 0.7900, 281, 1.92932677, 0.03450277, -0.37726846, -30.41569328, 6.38671017, -133.10122681, 48.96229172, -10.14323330, -52.11926270, 21.01556778, 68.16423035, -124.52243805, -0.28857896, 0.55796564, 0.12276410, -0.76832658, -1.00107312, -0.16789120, 0.03006176, 0.00000000, 0.00000000, 0.00000000, 0.00000000
1, 0.7925, 282, 1.89692521, 0.03316840, -0.38907567, -31.08661461, 8.33686447, -138.59785461, 48.78690338, -9.52937698, -52.67465591, 20.14375114, 68.30557251, -125.37749481, -0.28661042, 0.55753571, 0.12502420, -0.76901060, -0.96775687, -0.16046968, 0.04202989, 0.00000000, 0.00000000, 0.00000000, 0.00000000
1, 0.7950, 283, 1.84403014, 0.03152748, -0.40328959, -31.97296715, 10.28280640, -143.95394897, 48.78690338, -9.52937698, -52.67465591, 19.23076439, 68.45101166, -126.27359009, -0.28455466, 0.55711275, 0.12737525, -0.76969451, -0.91392642, -0.15250549, 0.05648765, 0.00000000, 0.00000000, 0.00000000, 0.00000000
1, 0.7975, 284, 1.82490218, 0.03885938, -0.42366734, -33.43106842, 11.87279415, -149.03324890, 48.78690338, -9.52937698, -52.67465591, 18.27464676, 68.59889984, -127.21122742, -0.28242382, 0.55668736, 0.12982099, -0.77037823, -0.89385378, -0.15328041, 0.07717587, 0.00000000, 0.00000000, 0.00000000, 0.00000000
1, 0.8000, 285, 1.82490218, 0.03885938, -0.42366734, -33.43106842, 11.87279415, -149.03324890, 48.78690338, -9.52937698, -52.67465591, 17.30576897, 68.74099731, -128.16162109, -0.28028986, 0.55625570, 0.13226528, -0.77105331, -0.89295167, -0.14671789, 0.07749631, 0.00000000, 0.00000000, 0.00000000, 0.00000000
1, 0.8025, 286, 1.80058610, 0.06377411, -0.48910052, -40.01071930, 13.85354424, -164.37170410, 48.78690338, -9.52937698, -52.67465591, 16.21619415, 68.89266968, -129.22288513, -0.27796853, 0.55576593, 0.13501687, -0.77176952, -0.86767876, -0.16434117, 0.14331114, 0.00000000, 0.00000000, 0.00000000, 0.00000000
1, 0.8050, 287, 1.80058610, 0.06377411, -0.48910052, -40.01071930, 13.85354424, -164.37170410, 47.88073730, -8.91552162, -53.58082199, 15.11160564, 69.03695679, -130.29914856, -0.27564338, 0.55526859, 0.13776663, -0.77247524, -0.86677510, -0.15704373, 0.14370614, 0.00000000, 0.00000000, 0.00000000, 0.00000000
1, 0.8075, 288, 1.79198182, 0.10542595, -0.55064380, -46.82585144, 10.29483032, -175.51815796, 47.88073730, -8.91552162, -53.58082199, 13.89869213, 69.17178345, -131.47213745, -0.27321959, 0.55462861, 0.14074282, -0.77325922, -0.85733116, -0.19083536, 0.20548657, 0.00000000, 0.00000000, 0.00000000, 0.00000000
1, 0.8100, 289, 1.78976095, 0.13163003, -0.56991184, -51.33551407, 6.95655775, -181.70343018, 47.88073730, -8.91552162, -53.58082199, 12.61490345, 69.29290771, -132.70787048, -0.27075174, 0.55387729, 0.14384770, -0.77409381, -0.85436082, -0.20885330, 0.22485632, 0.00000000, 0.00000000, 0.00000000, 0.00000000
1, 0.8125, 290, 1.79131615, 0.15680754, -0.58492649, -56.41530991, 2.92932582, -188.45567322, 47.88073730, -8.91552162, -53.58082199, 11.25506592, 69.39749146, -134.01039124, -0.26823914, 0.55299705, 0.14709365, -0.77498746, -0.85527217, -0.22548696, 0.23981103, 0.00000000, 0.00000000, 0.00000000, 0.00000000
1, 0.8150, 291, 1.79858279, 0.17965201, -0.59827775, -61.92347717, -1.51186693, -195.56184387, 47.88073730, -8.91552162, -53.58082199, 9.81686306, 69.48317719, -135.38107300, -0.26568195, 0.55197597, 0.15048963, -0.77594370, -0.86201388, -0.23940918, 0.25292689, 0.00000000, 0.00000000, 0.00000000, 0.00000000
1, 0.8175, 292, 1.80853772, 0.19842334, -0.60961950, -68.00707245, -6.01778221, -203.29646301, 48.26074219, -7.98012257, -53.87313461, 8.29696655, 69.54834747, -136.82206726, -0.26307631, 0.55080646, 0.15405245, -0.77696270, -0.87157071, -0.24884565, 0.26385933, 0.00000000, 0.00000000, 0.00000000, 0.00000000
1, 0.8200, 293, 1.81523693, 0.20705430, -0.62648660, -74.59132385, -10.93393707, -211.66445923, 48.26074219, -7.98012257, -53.87313461, 6.69247293, 69.59027100, -138.33525085, -0.26041839, 0.54947501, 0.15779568, -0.77804887, -0.87801427, -0.24769561, 0.28013110, 0.00000000, 0.00000000, 0.00000000, 0.00000000
1, 0.8225, 294, 1.82831824, 0.19673784, -0.64023519, -80.52873230, -15.90669346, -220.45500183, 48.26074219, -7.98012257, -53.87313461, 5.00607109, 69.60687256, -139.91972351, -0.25769299, 0.54798126, 0.16171286, -0.77920455, -0.89099455, -0.22714494, 0.29310414, 0.00000000, 0.00000000, 0.00000000, 0.00000000
1, 0.8250, 295, 1.84354830, 0.16971827, -0.64581233, -84.74458313, -20.50945854, -229.73574829, 48.26074219, -7.98012257, -53.87313461, 3.24186707, 69.59718323, -141.57568359, -0.25486591, 0.54633725, 0.16578691, -0.78043175, -0.90628356, -0.18943301, 0.29775169, 0.00000000, 0.00000000, 0.00000000, 0.00000000
1, 0.8275, 296, 1.86588502, 0.10740104, -0.63080418, -86.66616058, -24.33352089, -238.73364258, 48.26074219, -7.98012257, -53.87313461, 1.41679585, 69.56063080, -143.29194641, -0.25191826, 0.54456908, 0.16997011, -0.78172368, -0.92884290, -0.11603548, 0.28169480, 0.00000000, 0.00000000, 0.00000000, 0.00000000
1, 0.8300, 297, 1.89000201, 0.00864291, -0.59436208, -84.64787292, -26.46114349, -247.58152771, 49.13768005, -7.22011089, -55.65623856, -0.45443371, 69.49969482, -145.06338501, -0.24879555, 0.54272556, 0.17420688, -0.78307199, -0.95333183, -0.00586525, 0.24416021, 0.00000000, 0.00000000, 0.00000000, 0.00000000
1, 0.8325, 298, 1.90599501, -0.12396134, -0.52335083, -77.18060303, -26.62105942, -255.02177429, 49.13768005, -7.22011089, -55.65623856, -2.34406877, 69.41757965, -146.87524414, -0.24544962, 0.54087341, 0.17839746, -0.78446472, -0.96982795, 0.13834003, 0.17209020, 0.00000000, 0.00000000, 0.00000000, 0.00000000
1, 0.8350, 299, 1.88703394, -0.25086513, -0.42370868, -64.48591614, -23.86791992, -259.64196777, 49.13768005, -7.22011089, -55.65623856, -4.21754456, 69.32085419, -148.70483398, -0.24185567, 0.53909981, 0.18243392, -0.78587216, -0.95146143, 0.27683592, 0.07153016, 0.00000000, 0.00000000, 0.00000000, 0.00000000
1, 0.8375, 300, 1.79210043, -0.33170980, -0.33713636, -47.85649872, -18.28964233, -261.01950073, 49.13768005, -7.22011089, -55.65623856, -6.04362345, 69.21694183, -150.52938843, -0.23801214, 0.53748578, 0.18622473, -0.78726083, -0.85716993, 0.36906838, -0.01572239, 0.00000000, 0.00000000, 0.00000000, 0.00000000
1, 0.8400, 301, 1.64192438, -0.32460046, -0.25496987, -30.80229187, -11.56435013, -260.21469116, 49.13768005, -7.22011089, -55.65623856, -7.80831099, 69.10978699, -152.33515930, -0.23394722, 0.53606129, 0.18974194, -0.78860962, -0.70765913, 0.37304497, -0.09830274, 0.00000000, 0.00000000, 0.00000000, 0.00000000
1, 0.8475, 302, 1.34387720, -0.22722647, -0.17967252, -5.08211279, 7.70342159, -259.12826538, 50.51154709, -6.98626137, -57.35165024, -12.86214733, 68.77289581, -157.65673828, -0.22094491, 0.53267437, 0.19941805, -0.79225880, -0.41172475, 0.30782452, -0.17330854, 0.00000000, 0.00000000, 0.00000000, 0.00000000
1, 0.8500, 303, 1.29473400, -0.21016838, -0.17625579, -1.23980033, 12.25879574, -260.26803589, 50.51154709, -6.98626137, -57.35165024, -14.50631809, 68.64875031, -159.41798401, -0.21640390, 0.53173935, 0.20251989, -0.79335260, -0.36336821, 0.30136681, -0.17622218, 0.00000000, 0.00000000, 0.00000000, 0.00000000
1, 0.8525, 304, 1.25655854, -0.20577475, -0.16914511, 0.74501681, 15.41305923, -261.49066162, 50.51154709, -6.98626137, -57.35165024, -16.13771248, 68.51316071, -161.17239380, -0.21179776, 0.53084570, 0.20560990, -0.79439867, -0.32605702, 0.30758339, -0.18270981, 0.00000000, 0.00000000, 0.00000000, 0.00000000
1, 0.8550, 305, 1.22835302, -0.20642447, -0.15858829, 1.94009519, 18.55005074, -262.08148193, 52.70388794, -4.23852682, -57.90704346, -17.75335503, 68.36654663, -162.91477966, -0.20714651, 0.52999181, 0.20869380, -0.79539043, -0.29879177, 0.31883866, -0.19252288, 0.00000000, 0.00000000, 0.00000000, 0.00000000
1, 0.8575, 306, 1.21089244, -0.22611900, -0.14529014, 3.63588715, 22.03353500, -262.38949585, 52.70388794, -4.23852682, -57.90704346, -19.35013199, 68.21005249, -164.64324951, -0.20244764, 0.52918720, 0.21176070, -0.79632485, -0.28234166, 0.34911421, -0.20494649, 0.00000000, 0.00000000, 0.00000000, 0.00000000
1, 0.8600, 307, 1.20357013, -0.25104737, -0.11510739, 6.98392868, 25.79623604, -261.85983276, 52.70388794, -4.23852682, -57.90704346, -20.91912842, 68.04521942, -166.35273743, -0.19769526, 0.52844775, 0.21477297, -0.79720277, -0.27609110, 0.38453948, -0.23412386, 0.00000000, 0.00000000, 0.00000000, 0.00000000
1, 0.8625, 308, 1.18589556, -0.25862262, -0.08097188, 10.97110653, 30.59474945, -260.75869751, 52.70388794, -4.23852682, -57.90704346, -22.45785713, 67.87535095, -168.04235840, -0.19288707, 0.52779663, 0.21771681, -0.79801297, -0.25952905, 0.40249398, -0.26708835, 0.00000000, 0.00000000, 0.00000000, 0.00000000
1, 0.8650, 309, 1.15806103, -0.24585347, -0.05432475, 15.09476376, 36.29249954, -259.50592041, 52.70388794, -4.23852682, -57.90704346, -23.96801949, 67.70303345, -169.71429443, -0.18801980, 0.52725077, 0.22059125, -0.79874563, -0.23283154, 0.39997905, -0.29236749, 0.00000000, 0.00000000, 0.00000000, 0.00000000
1, 0.8675, 310, 1.13233149, -0.22197878, -0.03850968, 19.00472069, 41.77832031, -258.11547852, 52.70388794, -4.23852682, -57.90704346, -25.44990921, 67.52816772, -171.36830139, -0.18309924, 0.52680594, 0.22339685, -0.79940224, -0.20826414, 0.38623130, -0.30662909, 0.00000000, 0.00000000, 0.00000000, 0.00000000
1, 0.8700, 311, 1.11311638, -0.19649272, -0.03013733, 22.34947205, 46.01799774, -257.08972168, 54.42852783, -1.69541073, -58.72551727, -26.90450096, 67.34785461, -173.00393677, -0.17813146, 0.52643621, 0.22614196, -0.79999620, -0.19025648, 0.37076843, -0.31331214, 0.00000000, 0.00000000, 0.00000000, 0.00000000
1, 0.8725, 312, 1.10504723, -0.17480618, -0.02758924, 25.19822311, 49.35617447, -256.28448486, 54.42852783, -1.69541073, -58.72551727, -28.33206558, 67.16015625, -174.62017822, -0.17312273, 0.52612257, 0.22883368, -0.80053657, -0.18345401, 0.35901809, -0.31407130, 0.00000000, 0.00000000, 0.00000000, 0.00000000
1, 0.8750, 313, 1.10474110, -0.15843594, -0.02904877, 28.19843674, 51.66701889, -256.12304688, 54.42852783, -1.69541073, -58.72551727, -29.72709465, 66.96914673, -176.21191406, -0.16809058, 0.52588904, 0.23145270, -0.80100930, -0.18444693, 0.35243350, -0.31069192, 0.00000000, 0.00000000, 0.00000000, 0.00000000
1, 0.8775, 314, 1.11112595, -0.15158170, -0.03347822, 32.06866455, 53.02318192, -256.39703369, 54.42852783, -1.69541073, -58.72551727, -31.09776688, 66.75894928, -177.78964233, -0.16297160, 0.52562988, 0.23402454, -0.80148983, -0.19227326, 0.35539281, -0.30441320, 0.00000000, 0.00000000, 0.00000000, 0.00000000
1, 0.8800, 315, 1.11135674, -0.15092780, -0.03615703, 36.66617966, 53.28595352, -257.17788696, 54.42852783, -1.69541073, -58.72551727, -32.43457031, 66.53372192, -179.34555054, -0.15777948, 0.52537018, 0.23651809, -0.80196697, -0.19406229, 0.36450192, -0.29993367, 0.00000000, 0.00000000, 0.00000000, 0.00000000
1, 0.8825, 316, 1.10333109, -0.14613685, -0.03851119, 41.62861633, 52.92564774, -257.75851440, 55.01315308, 0.99386144, -60.27477264, -33.73256683, 66.29282379, 179.12469482, -0.15251689, 0.52510059, 0.23892227, -0.80244881, -0.18771905, 0.36940920, -0.29585984, 0.00000000, 0.00000000, 0.00000000, 0.00000000
1, 0.8850, 317, 1.08634853, -0.14313798, -0.03879710, 46.73817062, 52.15235138, -258.41516113, 55.01315308, 0.99386144, -60.27477264, -34.98943710, 66.03580475, 177.62290955, -0.14718314, 0.52481323, 0.24123386, -0.80294126, -0.17254928, 0.37604392, -0.29395765, 0.00000000, 0.00000000, 0.00000000, 0.00000000
1, 0.8875, 318, 1.06829345, -0.13949184, -0.03308322, 52.21332932, 50.68564987, -258.80261230, 55.01315308, 0.99386144, -60.27477264, -36.19989395, 65.76222992, 176.15386963, -0.14178255, 0.52449769, 0.24344096, -0.80345285, -0.15644392, 0.38194937, -0.29819426, 0.00000000, 0.00000000, 0.00000000, 0.00000000
1, 0.8900, 319, 1.04711747, -0.13659130, -0.01918714, 57.40546417, 48.66346359, -259.26669312, 55.01315308, 0.99386144, -60.27477264, -37.36243820, 65.47155762, 174.71994019, -0.13632026, 0.52414215, 0.24554768, -0.80398887, -0.13736230, 0.38852412, -0.31077555, 0.00000000, 0.00000000, 0.00000000, 0.00000000
1, 0.8925, 320, 1.02469969, -0.13721921, 0.01763059, 62.59796524, 46.57423019, -259.87149048, 55.01315308, 0.99386144, -60.27477264, -38.47687149, 65.16413116, 173.32122803, -0.13079445, 0.52374399, 0.24755552, -0.80455047, -0.11718515, 0.39855552, -0.34644777, 0.00000000, 0.00000000, 0.00000000, 0.00000000
1, 0.8950, 321, 0.96796387, -0.15382160, 0.03411147, 68.07997131, 44.21403122, -260.69073486, 56.09470749, 3.91698337, -59.25167847, -39.54203033, 64.83979034, 171.95820618, -0.12519975, 0.52329707, 0.24946101, -0.80514252, -0.06284153, 0.42449158, -0.36197028, 0.00000000, 0.00000000, 0.00000000, 0.00000000
1, 0.8975, 322, 0.92452490, -0.16597143, 0.04440121, 73.77727509, 41.92288208, -261.36990356, 56.09470749, 3.91698337, -59.25167847, -40.55678558, 64.49954224, 170.63146973, -0.11953607, 0.52280313, 0.25125900, -0.80576485, -0.02194322, 0.44589520, -0.37149292, 0.00000000, 0.00000000, 0.00000000, 0.00000000
1, 0.9000, 323, 0.92452490, -0.16597143, 0.04440121, 73.77727509, 41.92288208, -261.36990356, 56.09470749, 3.91698337, -59.25167847, -41.54058075, 64.14948273, 169.33525085, -0.11386810, 0.52229041, 0.25304800, -0.80635828, -0.02459046, 0.45512164, -0.37076020, 0.00000000, 0.00000000, 0.00000000, 0.00000000
1, 0.9025, 324, 0.84049875, -0.20033018, 0.07300809, 87.47850800, 36.91589355, -260.78317261, 56.09470749, 3.91698337, -59.25167847, -42.44031143, 63.78188705, 168.09054565, -0.10807783, 0.52170789, 0.25456762, -0.80705357, 0.05661984, 0.49845958, -0.39904067, 0.00000000, 0.00000000, 0.00000000, 0.00000000
1, 0.9050, 325, 0.84049875, -0.20033018, 0.07300809, 87.47850800, 36.91589355, -260.78317261, 56.09470749, 3.91698337, -59.25167847, -43.31031418, 63.40591049, 166.87503052, -0.10228360, 0.52110624, 0.25607792, -0.80771929, 0.05370153, 0.50740707, -0.39875284, 0.00000000, 0.00000000, 0.00000000, 0.00000000
1, 0.9075, 326, 0.77836734, -0.28518027, 0.10617384, 97.10887146, 37.59385681, -258.56738281, 57.79011917, 7.01549244, -59.71937943, -44.12181091, 63.02710342, 165.69407654, -0.09641140, 0.52053124, 0.25738540, -0.80839646, 0.11285365, 0.60094887, -0.43177384, 0.00000000, 0.00000000, 0.00000000, 0.00000000
1, 0.9100, 327, 0.74731994, -0.32162222, 0.13427372, 102.98642731, 39.97332764, -256.66595459, 57.79011917, 7.01549244, -59.71937943, -44.89274979, 62.64853668, 164.53822327, -0.09048903, 0.52000195, 0.25856313, -0.80904567, 0.14088485, 0.64589214, -0.45976007, 0.00000000, 0.00000000, 0.00000000, 0.00000000
1, 0.9125, 328, 0.71403027, -0.36207789, 0.17588069, 108.99352264, 44.27302933, -253.47999573, 57.79011917, 7.01549244, -59.71937943, -45.62656784, 62.27632141, 163.40335083, -0.08452713, 0.51955909, 0.25959754, -0.80964357, 0.17117104, 0.69460726, -0.50121576, 0.00000000, 0.00000000, 0.00000000, 0.00000000
1, 0.9150, 329, 0.66273594, -0.41629556, 0.21975778, 114.68937683, 51.66266251, -248.78236389, 57.79011917, 7.01549244, -59.71937943, -46.33145142, 61.91882706, 162.28132629, -0.07853867, 0.51926452, 0.26048210, -0.81015134, 0.21954554, 0.75679088, -0.54478484, 0.00000000, 0.00000000, 0.00000000, 0.00000000
1, 0.9175, 330, 0.56546736, -0.46125579, 0.22880009, 121.15942383, 61.06537628, -243.92008972, 57.79011917, 7.01549244, -59.71937943, -47.01395035, 61.57996750, 161.16268921, -0.07250651, 0.51915568, 0.26120371, -0.81055105, 0.31401473, 0.80940950, -0.55330026, 0.00000000, 0.00000000, 0.00000000, 0.00000000
1, 0.9200, 331, 0.47234449, -0.49065879, 0.22585231, 127.90852356, 71.57088470, -238.55418396, 57.81935120, 9.50014591, -60.04092407, -47.67758179, 61.26259613, 160.04286194, -0.06643023, 0.51925457, 0.26175207, -0.81083149, 0.40448794, 0.84614426, -0.54957366, 0.00000000, 0.00000000, 0.00000000, 0.00000000
1, 0.9225, 332, 0.38283387, -0.50019073, 0.20132802, 133.79788208, 82.03868103, -231.29759216, 57.81935120, 9.50014591, -60.04092407, -48.32076645, 60.97012711, 158.92628479, -0.06035333, 0.51956916, 0.26211944, -0.81098622, 0.49153265, 0.86262584, -0.52401054, 0.00000000, 0.00000000, 0.00000000, 0.00000000
1, 0.9250, 333, 0.30763522, -0.49066076, 0.16374671, 138.76622009, 91.15695953, -222.44766235, 57.81935120, 9.50014591, -60.04092407, -48.93214035, 60.71291733, 157.82772827, -0.05437507, 0.52013189, 0.26225328, -0.81100529, 0.56454432, 0.85947412, -0.48511910, 0.00000000, 0.00000000, 0.00000000, 0.00000000
1, 0.9275, 334, 0.24276181, -0.46723077, 0.11169337, 142.53114319, 98.17350769, -212.78305054, 57.81935120, 9.50014591, -60.04092407, -49.52190018, 60.47033691, 156.74171448, -0.04843027, 0.52081120, 0.26225773, -0.81094456, 0.62733865, 0.84213769, -0.43164656, 0.00000000, 0.00000000, 0.00000000, 0.00000000
1, 0.9300, 335, 0.18560140, -0.44297642, 0.04741709, 144.87794495, 102.82366180, -203.21578979, 57.81935120, 9.50014591, -60.04092407, -50.08103943, 60.24819183, 155.68168640, -0.04259977, 0.52161169, 0.26210767, -0.81080586, 0.68258166, 0.82357240, -0.36585885, 0.00000000, 0.00000000, 0.00000000, 0.00000000
1, 0.9325, 336, 0.14060032, -0.42802581, -0.01568234, 146.23872375, 104.97625732, -193.95896912, 57.73165512, 12.71557999, -58.19935608, -50.60660553, 60.04235458, 154.65419006, -0.03690375, 0.52248669, 0.26182124, -0.81061423, 0.72579432, 0.81393445, -0.30123225, 0.00000000, 0.00000000, 0.00000000, 0.00000000
1, 0.9350, 337, 0.09806716, -0.42147917, -0.07488297, 147.40463257, 104.63428497, -184.73532104, 57.73165512, 12.71557999, -58.19935608, -51.09262848, 59.84936142, 153.66690063, -0.03135832, 0.52339226, 0.26140028, -0.81039935, 0.76664048, 0.81233096, -0.24057792, 0.00000000, 0.00000000, 0.00000000, 0.00000000
1, 0.9375, 338, 0.05823873, -0.42197978, -0.13040891, 148.58857727, 102.20749664, -175.05043030, 57.73165512, 12.71557999, -58.19935608, -51.53248978, 59.66746902, 152.72778320, -0.02598345, 0.52429473, 0.26083806, -0.81018728, 0.80487001, 0.81738919, -0.18374819, 0.00000000, 0.00000000, 0.00000000, 0.00000000
1, 0.9400, 339, 0.02345098, -0.42020091, -0.16305935, 150.36659241, 97.50122833, -165.39839172, 57.73165512, 12.71557999, -58.19935608, -51.91872025, 59.49384308, 151.84397888, -0.02078487, 0.52515471, 0.26012373, -0.81000996, 0.83812344, 0.81977600, -0.15003696, 0.00000000, 0.00000000, 0.00000000, 0.00000000
1, 0.9425, 340, -0.01259984, -0.41495851, -0.17170349, 152.87991333, 90.85974884, -155.56518555, 57.73165512, 12.71557999, -58.19935608, -52.24393845, 59.32661819, 151.02220154, -0.01576837, 0.52593988, 0.25924221, -0.80989647, 0.87268913, 0.81829071, -0.14065814, 0.00000000, 0.00000000, 0.00000000, 0.00000000
1, 0.9450, 341, -0.04447261, -0.40714097, -0.16125394, 155.76316833, 82.91049957, -146.03065491, 57.99473953, 14.64484024, -57.41011429, -52.50497055, 59.16401291, 150.26531982, -0.01093181, 0.52662587, 0.25819087, -0.80986619, 0.90311080, 0.81382740, -0.15075152, 0.00000000, 0.00000000, 0.00000000, 0.00000000
1, 0.9475, 342, -0.07400413, -0.40164831, -0.14216878, 159.07643127, 75.10484314, -136.56553650, 57.99473953, 14.64484024, -57.41011429, -52.70263290, 59.00679779, 149.57138062, -0.00626811, 0.52721536, 0.25696412, -0.80992240, 0.93123257, 0.81128114, -0.16985814, 0.00000000, 0.00000000, 0.00000000, 0.00000000
1, 0.9500, 343, -0.10113446, -0.39435419, -0.12794884, 162.59878540, 68.12876129, -126.88002777, 57.99473953, 14.64484024, -57.41011429, -52.83975983, 58.85729218, 148.93672180, -0.00177399, 0.52772415, 0.25555682, -0.81005847, 0.95701611, 0.80651385, -0.18444704, 0.00000000, 0.00000000, 0.00000000, 0.00000000
1, 0.9525, 344, -0.12627344, -0.39270481, -0.13972525, 165.83076477, 61.49508286, -117.11899567, 57.99473953, 14.64484024, -57.41011429, -52.91911316, 58.71660233, 148.35920715, 0.00254788, 0.52815878, 0.25397426, -0.81027097, 0.98088282, 0.80697232, -0.17336564, 0.00000000, 0.00000000, 0.00000000, 0.00000000
1, 0.9550, 345, -0.14881270, -0.39149734, -0.17143194, 169.27877808, 54.86012650, -107.14886475, 57.99473953, 14.64484024, -57.41011429, -52.94061279, 58.58553696, 147.83850098, 0.00669643, 0.52851999, 0.25221086, -0.81056255, 1.00223196, 0.80744129, -0.14268081, 0.00000000, 0.00000000, 0.00000000, 0.00000000
1, 0.9575, 346, -0.17272125, -0.38942316, -0.21265396, 172.58135986, 48.43043518, -97.10552979, 57.90704346, 17.74334908, -57.81935120, -52.90602875, 58.46484756, 147.37316895, 0.01066995, 0.52881169, 0.25026911, -0.81093150, 1.02504051, 0.80661011, -0.10279334, 0.00000000, 0.00000000, 0.00000000, 0.00000000
1, 0.9600, 347, -0.18958648, -0.38652009, -0.24935642, 175.38101196, 41.99385452, -86.92077637, 57.90704346, 17.74334908, -57.81935120, -52.81700516, 58.35499954, 146.96295166, 0.01446023, 0.52903420, 0.24815696, -0.81137663, 1.04090154, 0.80451751, -0.06772566, 0.00000000, 0.00000000, 0.00000000, 0.00000000
1, 0.9625, 348, -0.20694761, -0.37594199, -0.28129682, 177.38374329, 36.24665451, -77.00382233, 57.90704346, 17.74334908, -57.81935120, -52.67908478, 58.25662994, 146.60386658, 0.01806670, 0.52919811, 0.24589205, -0.81188679, 1.05736053, 0.79433668, -0.03767616, 0.00000000, 0.00000000, 0.00000000, 0.00000000
1, 0.9650, 349, -0.22312699, -0.34754705, -0.30355769, 177.58470154, 31.10140228, -66.79304504, 57.90704346, 17.74334908, -57.81935120, -52.49849319, 58.17123795, 146.29402161, 0.02146670, 0.52931607, 0.24350330, -0.81244689, 1.07275510, 0.76593959, -0.01750368, 0.00000000, 0.00000000, 0.00000000, 0.00000000
1, 0.9675, 350, -0.23396261, -0.31832072, -0.32202873, 175.26759338, 26.20850945, -56.50068665, 57.90704346, 17.74334908, -57.81935120, -52.28250885, 58.09932327, 146.03242493, 0.02463116, 0.52939403, 0.24103491, -0.81304222, 1.08292794, 0.73634297, -0.00125972, 0.00000000, 0.00000000, 0.00000000, 0.00000000
1, 0.9700, 351, -0.23055096, -0.29643983, -0.32939914, 171.57879639, 21.93368530, -46.68504333, 57.73165512, 18.47413063, -57.87781143, -52.03794861, 58.04078293, 145.81517029, 0.02755604, 0.52944130, 0.23851708, -0.81365979, 1.07897615, 0.71376204, 0.00379607, 0.00000000, 0.00000000, 0.00000000, 0.00000000
1, 0.9725, 352, -0.22294526, -0.28380010, -0.32531089, 167.66436768, 18.77233887, -37.34314346, 57.73165512, 18.47413063, -57.87781143, -51.77018356, 57.99628448, 145.63667297, 0.03025303, 0.52947563, 0.23595919, -0.81428713, 1.07095873, 0.70011365, -0.00264674, 0.00000000, 0.00000000, 0.00000000, 0.00000000
1, 0.9750, 353, -0.20984150, -0.27421850, -0.31187153, 163.74227905, 16.44953346, -28.47942734, 57.73165512, 18.47413063, -57.87781143, -51.45796204, 57.96295166, 145.51354980, 0.03271417, 0.52944142, 0.23329717, -0.81498110, 1.05754697, 0.68912458, -0.01865702, 0.00000000, 0.00000000, 0.00000000, 0.00000000
1, 0.9775, 354, -0.19952480, -0.25786945, -0.29111320, 160.17344666, 14.82685375, -19.88713455, 57.73165512, 18.47413063, -57.87781143, -51.15341187, 57.94733047, 145.40045166, 0.03499311, 0.52948618, 0.23066692, -0.81560570, 1.04708517, 0.67119271, -0.04176113, 0.00000000, 0.00000000, 0.00000000, 0.00000000
1, 0.9800, 355, -0.19262646, -0.23453204, -0.27011868, 156.67280579, 13.55872440, -11.77983856, 57.73165512, 18.47413063, -57.87781143, -50.83339691, 57.94577408, 145.31588745, 0.03708055, 0.52954543, 0.22800352, -0.81622374, 1.04017270, 0.64600754, -0.06507351, 0.00000000, 0.00000000, 0.00000000, 0.00000000
1, 1.0075, 356, -0.21314226, -0.34591874, -0.07785457, 160.31597900, 39.82321167, 77.45824432, 58.08243179, 17.94796753, -56.70856476, -46.45020676, 58.99723434, 145.61308289, 0.05093201, 0.53373516, 0.19412810, -0.82149071, 1.07028449, 0.71923602, -0.27702758, 0.00000000, 0.00000000, 0.00000000, 0.00000000
1, 1.0100, 357, -0.21745226, -0.34567326, -0.06195631, 167.04222107, 45.32869339, 88.07187653, 58.08243179, 17.94796753, -56.70856476, -45.91444397, 59.23456955, 145.75076294, 0.05149018, 0.53473020, 0.19005674, -0.82176089, 1.07672095, 0.71310246, -0.29392794, 0.00000000, 0.00000000, 0.00000000, 0.00000000
1, 1.0125, 358, -0.24398859, -0.31263497, -0.05968542, 172.83630371, 50.73863983, 99.80629730, 58.08243179, 17.94796753, -56.70856476, -45.34079742, 59.50162506, 145.91528320, 0.05192702, 0.53585410, 0.18573490, -0.82198942, 1.10563219, 0.67362994, -0.29704061, 0.00000000, 0.00000000, 0.00000000, 0.00000000
1, 1.0150, 359, -0.27195483, -0.26334018, -0.06852709, 176.33659363, 55.23798370, 110.83644867, 58.08243179, 17.94796753, -56.70856476, -44.73242569, 59.79527283, 146.10942078, 0.05222411, 0.53708810, 0.18121234, -0.82217473, 1.13618803, 0.61741447, -0.28886992, 0.00000000, 0.00000000, 0.00000000, 0.00000000
1, 1.0175, 360, -0.28208953, -0.21958669, -0.07956746, 178.32754517, 59.46825790, 120.46910095, 58.08243179, 17.94796753, -56.70856476, -44.09455872, 60.11222076, 146.33128357, 0.05238727, 0.53842145, 0.17653224, -0.82231045, 1.14909244, 0.56632811, -0.27831003, 0.00000000, 0.00000000, 0.00000000, 0.00000000
1, 1.0200, 361, -0.27238566, -0.19823711, -0.09074705, 179.38598633, 63.16336060, 128.34906006, 57.29319000, 16.69102669, -56.82548904, -43.43148422, 60.44820404, 146.57841492, 0.05243446, 0.53983712, 0.17173205, -0.82239574, 1.14229584, 0.53731275, -0.26742107, 0.00000000, 0.00000000, 0.00000000, 0.00000000
1, 1.0225, 362, -0.25551912, -0.18901320, -0.11141395, 179.50730896, 67.00358582, 135.25485229, 57.29319000, 16.69102669, -56.82548904, -42.74732208, 60.80153275, 146.84852600, 0.05237221, 0.54133362, 0.16683955, -0.82242310, 1.12845433, 0.52014041, -0.24683115, 0.00000000, 0.00000000, 0.00000000, 0.00000000
1, 1.0250, 363, -0.23778568, -0.16664647, -0.14825587, 178.55291748, 70.42819977, 141.52906799, 57.29319000, 16.69102669, -56.82548904, -42.03158951, 61.16709900, 147.15310669, 0.05219061, 0.54286164, 0.16185445, -0.82242370, 1.11381578, 0.48953694, -0.20995305, 0.00000000, 0.00000000, 0.00000000, 0.00000000
1, 1.0275, 364, -0.21496151, -0.14425428, -0.18523003, 176.38623047, 72.53907013, 146.95018005, 57.29319000, 16.69102669, -56.82548904, -41.30895615, 61.54682922, 147.47406006, 0.05189838, 0.54447371, 0.15686448, -0.82234323, 1.09416795, 0.45876175, -0.17265372, 0.00000000, 0.00000000, 0.00000000, 0.00000000
1, 1.0300, 365, -0.19203581, -0.10433616, -0.20971636, 172.57839966, 73.11678314, 152.00611877, 57.29319000, 16.69102669, -56.82548904, -40.56627274, 61.93390274, 147.82739258, 0.05147078, 0.54610276, 0.15187781, -0.82222611, 1.07444131, 0.41030872, -0.14769356, 0.00000000, 0.00000000, 0.00000000, 0.00000000
1, 1.0325, 366, -0.16415034, -0.05841744, -0.23094384, 166.48115540, 72.16953278, 155.78997803, 57.29319000, 16.69102669, -56.82548904, -39.80760574, 62.32306671, 148.21479797, 0.05089809, 0.54771912, 0.14695229, -0.82208157, 1.04973078, 0.35578671, -0.12587376, 0.00000000, 0.00000000, 0.00000000, 0.00000000
1, 1.0350, 367, -0.13936199, -0.01770210, -0.24173565, 158.59390259, 70.18340302, 158.51651001, 57.41011429, 15.90178299, -55.18854141, -39.03682327, 62.71024323, 148.63671875, 0.05017455, 0.54930276, 0.14213394, -0.82191670, 1.02806127, 0.30646870, -0.11439331, 0.00000000, 0.00000000, 0.00000000, 0.00000000
1, 1.0375, 368, -0.11642452, -0.00594700, -0.25687733, 149.70162964, 67.79444122, 159.84204102, 57.41011429, 15.90178299, -55.18854141, -38.25951767, 63.09217453, 149.08946228, 0.04931197, 0.55084330, 0.13745810, -0.82173312, 1.00816035, 0.28618109, -0.09847659, 0.00000000, 0.00000000, 0.00000000, 0.00000000
1, 1.0400, 369, -0.09788281, -0.01819939, -0.27103338, 140.59056091, 65.68919373, 160.61257935, 57.41011429, 15.90178299, -55.18854141, -37.47861862, 63.46830368, 149.57022095, 0.04831857, 0.55234480, 0.13293527, -0.82152838, 0.99257028, 0.28999662, -0.08345361, 0.00000000, 0.00000000, 0.00000000, 0.00000000
1, 1.0425, 370, -0.07761364, -0.04910320, -0.29574308, 132.33120728, 64.90641785, 161.46827698, 57.41011429, 15.90178299, -55.18854141, -36.69513702, 63.84117889, 150.07534790, 0.04720691, 0.55383062, 0.12854786, -0.82129079, 0.97518891, 0.31254283, -0.05775109, 0.00000000, 0.00000000, 0.00000000, 0.00000000
1, 1.0450, 371, -0.04979178, -0.09005759, -0.32013336, 125.64851379, 64.75715637, 162.60711670, 57.41011429, 15.90178299, -55.18854141, -35.90524292, 64.21231079, 150.60456848, 0.04599264, 0.55531150, 0.12426373, -0.82101917, 0.95020407, 0.34518388, -0.03224204, 0.00000000, 0.00000000, 0.00000000, 0.00000000
1, 1.0475, 372, -0.02198896, -0.12596743, -0.34481293, 119.75479889, 64.94938660, 164.51737976, 56.94241333, 13.82636642, -54.98392105, -35.10389709, 64.58337402, 151.16116333, 0.04467224, 0.55679464, 0.12005907, -0.82071304, 0.92519957, 0.37278205, -0.00631815, 0.00000000, 0.00000000, 0.00000000, 0.00000000
1, 1.0500, 373, -0.00186696, -0.15070894, -0.37064999, 114.36358643, 65.34304047, 167.12812805, 56.94241333, 13.82636642, -54.98392105, -34.28629684, 64.95552063, 151.74893188, 0.04323968, 0.55828494, 0.11591627, -0.82037288, 0.90784621, 0.38917822, 0.02088732, 0.00000000, 0.00000000, 0.00000000, 0.00000000
1, 1.0525, 374, 0.02017038, -0.17122425, -0.39911461, 109.54889679, 65.60031128, 169.94494629, 56.94241333, 13.82636642, -54.98392105, -33.44823837, 65.32845306, 152.37072754, 0.04169780, 0.55977947, 0.11182261, -0.82000256, 0.88854539, 0.40129715, 0.05082911, 0.00000000, 0.00000000, 0.00000000, 0.00000000
1, 1.0550, 375, 0.04753733, -0.19012384, -0.42707661, 104.80998993, 65.43841553, 173.03561401, 56.94241333, 13.82636642, -54.98392105, -32.58546066, 65.70135498, 153.03083801, 0.04004145, 0.56127083, 0.10777371, -0.81960756, 0.86387551, 0.41173631, 0.08035687, 0.00000000, 0.00000000, 0.00000000, 0.00000000
1, 1.0575, 376, 0.07894931, -0.20930833, -0.44234273, 100.43450165, 64.79522705, 176.11854553, 56.94241333, 13.82636642, -54.98392105, -31.69395065, 66.07274628, 153.73248291, 0.03827403, 0.56274974, 0.10376354, -0.81919539, 0.83511186, 0.42239106, 0.09725097, 0.00000000, 0.00000000, 0.00000000, 0.00000000
1, 1.0600, 377, 0.10602058, -0.22921282, -0.45162329, 95.98426056, 64.49754333, 179.20643616, 55.51008606, 12.59865570, -53.84390640, -30.77312660, 66.44293213, 154.47628784, 0.03639528, 0.56422180, 0.09979300, -0.81876159, 0.81064177, 0.43369621, 0.10823299, 0.00000000, 0.00000000, 0.00000000, 0.00000000
1, 1.0625, 378, 0.13281776, -0.24802050, -0.46895155, 91.45564270, 65.02565765, 182.58551025, 55.51008606, 12.59865570, -53.84390640, -29.82227516, 66.81356812, 155.26304626, 0.03440078, 0.56570208, 0.09585918, -0.81829637, 0.78641081, 0.44382411, 0.12736708, 0.00000000, 0.00000000, 0.00000000, 0.00000000
1, 1.0650, 379, 0.16019784, -0.26467159, -0.49076927, 87.64926147, 65.20879364, 186.30725098, 55.51008606, 12.59865570, -53.84390640, -28.83467865, 67.18386078, 156.09790039, 0.03229250, 0.56718373, 0.09194510, -0.81780553, 0.76155597, 0.45168960, 0.15107182, 0.00000000, 0.00000000, 0.00000000, 0.00000000
1, 1.0675, 380, 0.19039579, -0.28082547, -0.50342041, 83.91391754, 65.52778625, 190.24043274, 55.51008606, 12.59865570, -53.84390640, -27.80704880, 67.55368805, 156.98394775, 0.03006773, 0.56866890, 0.08804673, -0.81728780, 0.73384178, 0.45894167, 0.16569355, 0.00000000, 0.00000000, 0.00000000, 0.00000000
1, 1.0700, 381, 0.22157863, -0.29243276, -0.50696129, 80.46874237, 65.56921387, 194.37872314, 55.51008606, 12.59865570, -53.84390640, -26.73418427, 67.92205048, 157.92584229, 0.02772583, 0.57015198, 0.08415640, -0.81674701, 0.70509458, 0.46151760, 0.17127246, 0.00000000, 0.00000000, 0.00000000, 0.00000000
1, 1.0725, 382, 0.25286114, -0.29232174, -0.50457966, 77.52592468, 65.68679047, 198.37654114, 55.59777832, 10.23092651, -52.99620056, -25.61312485, 68.28820801, 158.92517090, 0.02527566, 0.57163304, 0.08026676, -0.81618261, 0.67619514, 0.45224321, 0.17099380, 0.00000000, 0.00000000, 0.00000000, 0.00000000
1, 1.0750, 383, 0.28498048, -0.28937289, -0.50264519, 74.87253571, 65.53448486, 202.08998108, 55.59777832, 10.23092651, -52.99620056, -24.41372681, 68.64589691, 160.00914001, 0.02269261, 0.57305282, 0.07631748, -0.81564152, 0.64636719, 0.43987644, 0.17107302, 0.00000000, 0.00000000, 0.00000000, 0.00000000
1, 1.0775, 384, 0.32351556, -0.28199714, -0.49870083, 72.07966614, 64.83023071, 205.58653259, 55.59777832, 10.23092651, -52.99620056, -23.18847466, 69.00164032, 161.12985229, 0.02004313, 0.57450604, 0.07243161, -0.81504279, 0.61007500, 0.42309666, 0.16930786, 0.00000000, 0.00000000, 0.00000000, 0.00000000
1, 1.0800, 385, 0.36664298, -0.26981854, -0.49383700, 69.00603485, 63.23090363, 208.58230591, 55.59777832, 10.23092651, -52.99620056, -21.90920067, 69.34759521, 162.31394958, 0.01729884, 0.57592267, 0.06856176, -0.81444043, 0.56909430, 0.40142316, 0.16661224, 0.00000000, 0.00000000, 0.00000000, 0.00000000
1, 1.0825, 386, 0.40957871, -0.26523766, -0.48212385, 66.37215424, 60.53548050, 211.07223511, 55.59777832, 10.23092651, -52.99620056, -20.57358932, 69.67985535, 163.56259155, 0.01447275, 0.57728177, 0.06470672, -0.81384856, 0.52818823, 0.38727042, 0.15700620, 0.00000000, 0.00000000, 0.00000000, 0.00000000
1, 1.0850, 387, 0.45610774, -0.27258736, -0.46021393, 64.23836517, 58.19314575, 213.42538452, 54.10698700, 8.91552162, -51.35925293, -19.18104172, 69.99811554, 164.87495422, 0.01157434, 0.57858872, 0.06085905, -0.81326348, 0.48357362, 0.38496992, 0.13715130, 0.00000000, 0.00000000, 0.00000000, 0.00000000
