SensorId, TimeStamp (s), FrameNumber, AccX (g), AccY (g), AccZ (g), GyroX (deg/s), GyroY (deg/s), GyroZ (deg/s), MagX (uT), MagY (uT), MagZ (uT), EulerX (deg), EulerY (deg), EulerZ (deg), QuatW, QuatX, QuatY, QuatZ, LinAccX (g), LinAccY (g), LinAccZ (g), Pressure (kPa), Altitude (m), Temperature (degC), HeaveMotion (m)
1, 0.0000, 0, 1.00249791, -0.01726496, -0.03902012, 1.06831276, -0.57436168, 1.47494686, 55.86085892, -6.92779875, -58.60859299, 15.00108147, 87.31688690, -127.87091064, -0.23420890, 0.65633643, 0.21590266, -0.68392599, -0.00359422, 0.00514817, -0.00619695, 0.00000000, 0.00000000, 0.00000000, 0.00000000
1, 0.0025, 1, 1.00432503, -0.02189580, -0.04129431, 1.21369934, -0.77963287, 1.40174818, 55.86085892, -6.92779875, -58.60859299, 15.06553745, 87.31419373, -127.80942535, -0.23421611, 0.65633762, 0.21586050, -0.68393570, -0.00542355, 0.00971550, -0.00395610, 0.00000000, 0.00000000, 0.00000000, 0.00000000
1, 0.0050, 2, 1.00736165, -0.02578354, -0.04355961, 1.28511083, -0.71082246, 1.47238779, 55.86085892, -6.92779875, -58.60859299, 15.13457775, 87.31156921, -127.74351501, -0.23422302, 0.65634048, 0.21581660, -0.68394440, -0.00846231, 0.01353654, -0.00172113, 0.00000000, 0.00000000, 0.00000000, 0.00000000
1, 0.0075, 3, 1.00894535, -0.02956383, -0.04520929, 1.28699124, -0.98337859, 1.18892550, 55.86085892, -6.92779875, -58.60859299, 15.18519783, 87.30829620, -127.69608307, -0.23422697, 0.65633798, 0.21577534, -0.68395847, -0.01004869, 0.01726244, -0.00011362, 0.00000000, 0.00000000, 0.00000000, 0.00000000
1, 0.0100, 4, 1.01112819, -0.03089004, -0.04633384, 1.21421349, -0.91151702, 0.98031759, 56.24086380, -5.72931862, -58.02396774, 15.22574043, 87.30538940, -127.65852356, -0.23422851, 0.65633518, 0.21573852, -0.68397224, -0.01223391, 0.01854356, 0.00097179, 0.00000000, 0.00000000, 0.00000000, 0.00000000
1, 0.0125, 5, 1.01331043, -0.03039691, -0.04571977, 0.99666935, -0.76736647, 0.49340266, 56.24086380, -5.72931862, -58.02396774, 15.24275875, 87.30320740, -127.64397430, -0.23422520, 0.65633112, 0.21571267, -0.68398541, -0.01441795, 0.01802698, 0.00032476, 0.00000000, 0.00000000, 0.00000000, 0.00000000
1, 0.0150, 6, 1.01355946, -0.03381468, -0.04736117, 0.92241859, -0.55373418, 0.07690167, 56.24086380, -5.72931862, -58.02396774, 15.24128532, 87.30182648, -127.64775848, -0.23421578, 0.65632796, 0.21569499, -0.68399733, -0.01466811, 0.02143957, 0.00194254, 0.00000000, 0.00000000, 0.00000000, 0.00000000
1, 0.0175, 7, 1.01416302, -0.03343792, -0.04772323, 0.77423644, -0.12976503, -0.54632568, 56.24086380, -5.72931862, -58.02396774, 15.21350574, 87.30190277, -127.67750549, -0.23419715, 0.65632743, 0.21569060, -0.68400562, -0.01527161, 0.02108504, 0.00229938, 0.00000000, 0.00000000, 0.00000000, 0.00000000
1, 0.0200, 8, 1.01306701, -0.03390685, -0.04968332, 0.62684411, 0.22276951, -1.03064430, 56.24086380, -5.72931862, -58.02396774, 15.16544628, 87.30313110, -127.72716522, -0.23417173, 0.65632910, 0.21569711, -0.68401057, -0.01417458, 0.02159763, 0.00426961, 0.00000000, 0.00000000, 0.00000000, 0.00000000
1, 0.0225, 9, 1.01171339, -0.03177148, -0.05331378, 0.55374658, 0.29792669, -1.44902670, 57.20549393, -5.17392588, -57.67319489, 15.09676170, 87.30480957, -127.79732513, -0.23414078, 0.65632957, 0.21571112, -0.68401629, -0.01281959, 0.01952428, 0.00791341, 0.00000000, 0.00000000, 0.00000000, 0.00000000
1, 0.0250, 10, 1.00975835, -0.02893101, -0.05485486, 0.55332041, 0.30232078, -1.72872615, 57.20549393, -5.17392588, -57.67319489, 15.01368141, 87.30662537, -127.88191986, -0.23410565, 0.65632880, 0.21572916, -0.68402338, -0.01086307, 0.01675802, 0.00946796, 0.00000000, 0.00000000, 0.00000000, 0.00000000
1, 0.0275, 11, 1.00756228, -0.02682392, -0.05677327, 0.69608080, 0.37729532, -2.00793648, 57.20549393, -5.17392588, -57.67319489, 14.91741657, 87.30879974, -127.97996521, -0.23406397, 0.65632856, 0.21574949, -0.68403155, -0.00866521, 0.01473711, 0.01140320, 0.00000000, 0.00000000, 0.00000000, 0.00000000
1, 0.0300, 12, 1.00597942, -0.02328945, -0.05512735, 0.84193760, 0.10388505, -2.15200090, 57.20549393, -5.17392588, -57.67319489, 15.07050037, 87.29299927, -127.82637787, -0.23415758, 0.65626830, 0.21566056, -0.68408531, -0.00709534, 0.01100949, 0.00952244, 0.00000000, 0.00000000, 0.00000000, 0.00000000
1, 0.0325, 13, 1.00390494, -0.01985062, -0.05555924, 0.76858300, 0.24498428, -2.35966778, 57.20549393, -5.17392588, -57.67319489, 14.95523548, 87.29515839, -127.94371033, -0.23411022, 0.65626478, 0.21568412, -0.68409747, -0.00501907, 0.00767196, 0.00996539, 0.00000000, 0.00000000, 0.00000000, 0.00000000
1, 0.0350, 14, 1.00365365, -0.01436422, -0.05241980, 0.91454637, -0.02952454, -2.43380785, 55.86085892, -4.91084480, -57.93627548, 14.83263874, 87.29653931, -128.06875610, -0.23406093, 0.65625757, 0.21570516, -0.68411463, -0.00476664, 0.00228981, 0.00682516, 0.00000000, 0.00000000, 0.00000000, 0.00000000
1, 0.0375, 15, 0.99987859, -0.00958650, -0.05246113, 0.98459142, 0.17995812, -2.50113583, 55.86085892, -4.91084480, -57.93627548, 14.70940781, 87.29856873, -128.19456482, -0.23400865, 0.65625352, 0.21572720, -0.68412948, -0.00098991, -0.00238083, 0.00687486, 0.00000000, 0.00000000, 0.00000000, 0.00000000
1, 0.0400, 16, 0.99516040, -0.00855619, -0.04864757, 0.90935642, 0.59361351, -2.42534113, 55.86085892, -4.91084480, -57.93627548, 14.59525394, 87.30154419, -128.31109619, -0.23395665, 0.65625560, 0.21575138, -0.68413764, 0.00373072, -0.00330725, 0.00308764, 0.00000000, 0.00000000, 0.00000000, 0.00000000
1, 0.0425, 17, 0.99261260, -0.00577238, -0.04640018, 0.69230115, 0.79601622, -2.21206665, 55.86085892, -4.91084480, -57.93627548, 14.49388981, 87.30494690, -128.41433716, -0.23390998, 0.65626055, 0.21577679, -0.68414080, 0.00628132, -0.00599599, 0.00087522, 0.00000000, 0.00000000, 0.00000000, 0.00000000
1, 0.0450, 18, 0.99069238, -0.00670780, -0.04176707, 0.90800858, 0.86067706, -1.79225421, 55.86085892, -4.91084480, -57.93627548, 14.41539097, 87.30814362, -128.49516296, -0.23386618, 0.65626961, 0.21579330, -0.68414187, 0.00820416, -0.00498428, -0.00371985, 0.00000000, 0.00000000, 0.00000000, 0.00000000
1, 0.0475, 19, 0.99141455, -0.00619887, -0.04273834, 1.12454987, 0.79015827, -1.58409810, 56.12393951, -5.52470016, -57.26395798, 14.34695530, 87.31098938, -128.56654358, -0.23382270, 0.65627968, 0.21580324, -0.68414396, 0.00748432, -0.00542636, -0.00271361, 0.00000000, 0.00000000, 0.00000000, 0.00000000
1, 0.0500, 20, 0.99213487, -0.00422892, -0.04270965, 1.48611391, 0.58140880, -1.30835009, 56.12393951, -5.52470016, -57.26395798, 14.29085541, 87.31324005, -128.62640381, -0.23377916, 0.65628982, 0.21580274, -0.68414932, 0.00676584, -0.00734225, -0.00271615, 0.00000000, 0.00000000, 0.00000000, 0.00000000
1, 0.0525, 21, 0.99587941, -0.00343052, -0.04576003, 1.56098545, 0.23479399, -1.24335492, 56.12393951, -5.52470016, -57.26395798, 14.23369980, 87.31455231, -128.68753052, -0.23373713, 0.65629542, 0.21579841, -0.68415958, 0.00302237, -0.00808959, 0.00034529, 0.00000000, 0.00000000, 0.00000000, 0.00000000
1, 0.0550, 22, 0.99938947, -0.00254508, -0.04636465, 1.41790545, 0.16311498, -1.17391908, 56.12393951, -5.52470016, -57.26395798, 14.17865467, 87.31564331, -128.74613953, -0.23369856, 0.65629959, 0.21579492, -0.68416995, -0.00048679, -0.00892664, 0.00095772, 0.00000000, 0.00000000, 0.00000000, 0.00000000
1, 0.0575, 23, 1.00024152, -0.00400910, -0.04687760, 1.12969589, 0.23076525, -1.24199975, 56.12393951, -5.52470016, -57.26395798, 14.12034893, 87.31696320, -128.80738831, -0.23366274, 0.65630293, 0.21579698, -0.68417823, -0.00133777, -0.00741079, 0.00148133, 0.00000000, 0.00000000, 0.00000000, 0.00000000
1, 0.0600, 24, 1.00134587, -0.00660250, -0.04569759, 0.62652445, 0.22606507, -1.24041891, 56.35778809, -6.46009922, -57.70242691, 14.06072712, 87.31835175, -128.86860657, -0.23363419, 0.65630370, 0.21580653, -0.68418425, -0.00244099, -0.00476461, 0.00031156, 0.00000000, 0.00000000, 0.00000000, 0.00000000
1, 0.0625, 25, 1.00257194, -0.01101467, -0.04625644, 0.26575011, 0.36337993, -1.37725782, 56.35778809, -6.46009922, -57.70242691, 13.99479103, 87.32003021, -128.93534851, -0.23360811, 0.65630400, 0.21582414, -0.68418729, -0.00366569, -0.00029296, 0.00088644, 0.00000000, 0.00000000, 0.00000000, 0.00000000
1, 0.0650, 26, 1.00537026, -0.01298213, -0.04531471, 0.04884543, 0.50093925, -1.44462359, 56.35778809, -6.46009922, -57.70242691, 13.92639828, 87.32207489, -129.00384521, -0.23358350, 0.65630490, 0.21584664, -0.68418771, -0.00646234, 0.00173742, -0.00003348, 0.00000000, 0.00000000, 0.00000000, 0.00000000
1, 0.0675, 27, 1.00586343, -0.01567869, -0.04572359, -0.16737603, 0.56816238, -1.44300532, 56.35778809, -6.46009922, -57.70242691, 13.85837746, 87.32434082, -129.07160950, -0.23356168, 0.65630573, 0.21587270, -0.68418616, -0.00695366, 0.00449718, 0.00040005, 0.00000000, 0.00000000, 0.00000000, 0.00000000
1, 0.0700, 28, 1.00744915, -0.01789241, -0.04514974, -0.31297576, 0.77563065, -1.50965631, 56.35778809, -6.46009922, -57.70242691, 13.78903866, 87.32727051, -129.14019775, -0.23353998, 0.65630859, 0.21590295, -0.68418127, -0.00853699, 0.00677733, -0.00014016, 0.00000000, 0.00000000, 0.00000000, 0.00000000
1, 0.0725, 29, 1.00746417, -0.02086136, -0.04385106, -0.23910716, 0.50264752, -1.72341967, 55.62701035, -6.48933077, -57.49780655, 13.70518684, 87.32939148, -129.22354126, -0.23351532, 0.65630680, 0.21593377, -0.68418175, -0.00855029, 0.00982186, -0.00141698, 0.00000000, 0.00000000, 0.00000000, 0.00000000
1, 0.0750, 30, 1.00736678, -0.02483500, -0.04110115, -0.38250676, 0.43426403, -1.86375821, 55.62701035, -6.48933077, -57.49780655, 13.61264706, 87.33159637, -129.31523132, -0.23349094, 0.65630257, 0.21596837, -0.68418324, -0.00845111, 0.01387746, -0.00414820, 0.00000000, 0.00000000, 0.00000000, 0.00000000
1, 0.0775, 31, 1.00809705, -0.02617667, -0.04161197, -0.23654345, 0.15975523, -1.93789804, 55.62701035, -6.48933077, -57.49780655, 13.51296234, 87.33306122, -129.41439819, -0.23346461, 0.65629458, 0.21600044, -0.68418968, -0.00918019, 0.01530410, -0.00363047, 0.00000000, 0.00000000, 0.00000000, 0.00000000
1, 0.0800, 32, 1.00881279, -0.02430878, -0.04305121, -0.01906208, -0.04704162, -1.87147272, 55.62701035, -6.48933077, -57.49780655, 14.07396603, 87.33254242, -128.85189819, -0.23361124, 0.65637559, 0.21587150, -0.68410265, -0.00989634, 0.01299189, -0.00209005, 0.00000000, 0.00000000, 0.00000000, 0.00000000
1, 0.0825, 33, 1.00881279, -0.02430878, -0.04305121, -0.01906208, -0.04704162, -1.87147272, 55.62701035, -6.48933077, -57.49780655, 13.97584915, 87.33364868, -128.95008850, -0.23358381, 0.65636593, 0.21589833, -0.68411279, -0.00989544, 0.01307349, -0.00209217, 0.00000000, 0.00000000, 0.00000000, 0.00000000
1, 0.0850, 34, 1.00356972, -0.01657584, -0.04389967, 1.20875454, -0.66535604, -1.46422982, 55.89009094, -4.88161373, -57.81935120, 13.89386272, 87.33283997, -129.03520203, -0.23354776, 0.65635520, 0.21589787, -0.68413550, -0.00465304, 0.00540206, -0.00127226, 0.00000000, 0.00000000, 0.00000000, 0.00000000
1, 0.0875, 35, 1.00356972, -0.01657584, -0.04389967, 1.20875454, -0.66535604, -1.46422982, 55.89009094, -4.88161373, -57.81935120, 13.81197739, 87.33218384, -129.12019348, -0.23351175, 0.65634453, 0.21589744, -0.68415827, -0.00465357, 0.00546354, -0.00130074, 0.00000000, 0.00000000, 0.00000000, 0.00000000
1, 0.0900, 36, 0.99604303, -0.01462694, -0.04507639, 1.20849741, -0.59941405, -1.25351465, 55.89009094, -4.88161373, -57.81935120, 13.74195480, 87.33152008, -129.19332886, -0.23347855, 0.65633583, 0.21589430, -0.68417895, 0.00287259, 0.00356694, -0.00014961, 0.00000000, 0.00000000, 0.00000000, 0.00000000
1, 0.0925, 37, 0.99530834, -0.01302555, -0.04553916, 0.99285245, -0.60142839, -1.25283706, 55.89009094, -4.88161373, -57.81935120, 13.67152691, 87.33071136, -129.26628113, -0.23344846, 0.65632600, 0.21589434, -0.68419862, 0.00360662, 0.00201818, 0.00028739, 0.00000000, 0.00000000, 0.00000000, 0.00000000
1, 0.0950, 38, 0.99626553, -0.00885077, -0.04486622, 0.99270201, -0.53658491, -0.97219694, 55.89009094, -4.88161373, -57.81935120, 13.61659718, 87.32997894, -129.32376099, -0.23342226, 0.65631849, 0.21589072, -0.68421590, 0.00264883, -0.00211619, -0.00040837, 0.00000000, 0.00000000, 0.00000000, 0.00000000
1, 0.0975, 39, 0.99360090, -0.00935658, -0.04474631, 0.84695178, -0.26427317, -0.75820762, 55.89009094, -6.43086815, -57.90704346, 13.57587433, 87.32975769, -129.36666870, -0.23340006, 0.65631527, 0.21588759, -0.68422753, 0.00531328, -0.00157900, -0.00053937, 0.00000000, 0.00000000, 0.00000000, 0.00000000
1, 0.1000, 40, 0.99165541, -0.00800839, -0.04508828, 1.13411486, -0.19454680, -0.61832058, 55.89009094, -6.43086815, -57.90704346, 13.54400444, 87.32975769, -129.40138245, -0.23337550, 0.65631521, 0.21587853, -0.68423879, 0.00725877, -0.00290245, -0.00020538, 0.00000000, 0.00000000, 0.00000000, 0.00000000
1, 0.1025, 41, 0.98984152, -0.01057887, -0.04646809, 1.35133898, -0.33540162, -0.34118026, 55.89009094, -6.43086815, -57.90704346, 13.52540302, 87.32917023, -129.42340088, -0.23335263, 0.65631545, 0.21586153, -0.68425167, 0.00907218, -0.00031978, 0.00116043, 0.00000000, 0.00000000, 0.00000000, 0.00000000
1, 0.1050, 42, 0.99347973, -0.01141708, -0.04685497, 1.20548224, -0.06199135, -0.19711587, 55.89009094, -6.43086815, -57.90704346, 13.51735973, 87.32902527, -129.43447876, -0.23333277, 0.65631974, 0.21584606, -0.68425930, 0.00543386, 0.00052463, 0.00154511, 0.00000000, 0.00000000, 0.00000000, 0.00000000
1, 0.1075, 43, 0.99568051, -0.01269507, -0.04272433, 0.99088407, -0.20138231, -0.26824471, 55.89009094, -6.43086815, -57.90704346, 13.50337791, 87.32873535, -129.45092773, -0.23331550, 0.65632051, 0.21583405, -0.68426818, 0.00323284, 0.00181234, -0.00259377, 0.00000000, 0.00000000, 0.00000000, 0.00000000
1, 0.1100, 44, 0.99787092, -0.01271964, -0.04028524, 0.70130807, 0.00694010, -0.47429356, 55.89009094, -6.43086815, -57.90704346, 13.48059845, 87.32910156, -129.47550964, -0.23329835, 0.65632200, 0.21583040, -0.68427378, 0.00104272, 0.00185613, -0.00503216, 0.00000000, 0.00000000, 0.00000000, 0.00000000
1, 0.1125, 45, 0.99726963, -0.01298392, -0.03918827, 0.55344558, 0.42761371, -0.88774645, 55.62701035, -5.87547493, -57.79011917, 13.44097900, 87.33063507, -129.51654053, -0.23327516, 0.65632701, 0.21583703, -0.68427479, 0.00164527, 0.00215805, -0.00611026, 0.00000000, 0.00000000, 0.00000000, 0.00000000
1, 0.1150, 46, 0.99653244, -0.01173563, -0.04075622, 0.55071276, 0.70895797, -1.16368294, 55.62701035, -5.87547493, -57.79011917, 13.39050865, 87.33277130, -129.56848145, -0.23324656, 0.65633494, 0.21584907, -0.68427318, 0.00238419, 0.00095935, -0.00451114, 0.00000000, 0.00000000, 0.00000000, 0.00000000
1, 0.1175, 47, 0.99543262, -0.01291597, -0.04456016, 0.69127303, 1.05978417, -1.36920536, 55.62701035, -5.87547493, -57.79011917, 13.33379650, 87.33629608, -129.62692261, -0.23321123, 0.65634781, 0.21586375, -0.68426824, 0.00348687, 0.00219804, -0.00066072, 0.00000000, 0.00000000, 0.00000000, 0.00000000
1, 0.1200, 48, 0.99348670, -0.01314130, -0.04663698, 0.83362585, 1.26554430, -1.15706038, 55.62701035, -5.87547493, -57.79011917, 13.29100037, 87.33996582, -129.67185974, -0.23317607, 0.65636551, 0.21587431, -0.68425995, 0.00543594, 0.00247213, 0.00147164, 0.00000000, 0.00000000, 0.00000000, 0.00000000
1, 0.1225, 49, 0.99227762, -0.01473436, -0.04739207, 0.90535700, 1.33105922, -0.87664592, 55.62701035, -5.87547493, -57.79011917, 13.26373196, 87.34379578, -129.70144653, -0.23314372, 0.65638578, 0.21588010, -0.68424958, 0.00664794, 0.00410166, 0.00228508, 0.00000000, 0.00000000, 0.00000000, 0.00000000
1, 0.1250, 50, 0.99471051, -0.01524249, -0.04544968, 0.97860497, 1.19105864, -0.73890364, 55.89009094, -6.43086815, -58.81321335, 13.24218559, 87.34719086, -129.72547913, -0.23311308, 0.65640509, 0.21588214, -0.68424088, 0.00421780, 0.00464005, 0.00039515, 0.00000000, 0.00000000, 0.00000000, 0.00000000
1, 0.1275, 51, 0.99932569, -0.01501515, -0.04264511, 0.83473521, 1.19081426, -0.80837661, 55.89009094, -6.43086815, -58.81321335, 13.21644592, 87.35050964, -129.75328064, -0.23308346, 0.65642327, 0.21588731, -0.68423188, -0.00039470, 0.00444633, -0.00235723, 0.00000000, 0.00000000, 0.00000000, 0.00000000
1, 0.1300, 52, 0.99981093, -0.01416642, -0.04165553, 1.04948378, 1.26536155, -1.01788807, 55.89009094, -6.43086815, -58.81321335, 13.30917263, 87.35754395, -129.66336060, -0.23306678, 0.65648001, 0.21587171, -0.68418807, -0.00087428, 0.00355277, -0.00321130, 0.00000000, 0.00000000, 0.00000000, 0.00000000
1, 0.1325, 53, 1.00186789, -0.01511057, -0.04375155, 1.19004405, 1.61618781, -1.22341073, 55.89009094, -6.43086815, -58.81321335, 13.26778889, 87.36220551, -129.70782471, -0.23302387, 0.65650445, 0.21587968, -0.68417674, -0.00292748, 0.00454788, -0.00104425, 0.00000000, 0.00000000, 0.00000000, 0.00000000
1, 0.1350, 54, 1.00440705, -0.01458796, -0.04509293, 1.11517262, 1.96280277, -1.28840590, 55.89009094, -6.43086815, -58.81321335, 13.22695065, 87.36755371, -129.75152588, -0.23297942, 0.65653336, 0.21589147, -0.68416041, -0.00546235, 0.00407921, 0.00038325, 0.00000000, 0.00000000, 0.00000000, 0.00000000
1, 0.1375, 55, 1.00489581, -0.01593423, -0.04535893, 0.97083259, 2.03069735, -1.28701341, 56.12393951, -5.46623802, -58.46243668, 13.18643284, 87.37335968, -129.79446411, -0.23293674, 0.65656257, 0.21590574, -0.68414241, -0.00594646, 0.00547970, 0.00073826, 0.00000000, 0.00000000, 0.00000000, 0.00000000
1, 0.1400, 56, 1.00538933, -0.01754197, -0.04452917, 0.75288117, 2.30563307, -1.28257298, 56.12393951, -5.46623802, -58.46243668, 13.14878845, 87.37970734, -129.83404541, -0.23289594, 0.65659475, 0.21592459, -0.68411946, -0.00643492, 0.00714191, 0.00000934, 0.00000000, 0.00000000, 0.00000000, 0.00000000
1, 0.1425, 57, 1.00346661, -0.01992103, -0.04211771, 0.53518665, 2.51462722, -1.48884773, 56.12393951, -5.46623802, -58.46243668, 13.10207748, 87.38658142, -129.88211060, -0.23285422, 0.65662801, 0.21595071, -0.68409353, -0.00450671, 0.00958482, -0.00229227, 0.00000000, 0.00000000, 0.00000000, 0.00000000
1, 0.1450, 58, 1.00347865, -0.02154492, -0.04030963, 0.46554923, 2.17435908, -1.91287482, 56.12393951, -5.46623802, -58.46243668, 13.02803993, 87.39295959, -129.95742798, -0.23280875, 0.65665382, 0.21598221, -0.68407428, -0.00451368, 0.01129116, -0.00400533, 0.00000000, 0.00000000, 0.00000000, 0.00000000
1, 0.1475, 59, 1.00540948, -0.02004706, -0.04126823, 0.17990333, 1.89911711, -2.19543362, 56.12393951, -5.46623802, -58.46243668, 12.93430233, 87.39875031, -130.05175781, -0.23276445, 0.65667272, 0.21602063, -0.68405908, -0.00643993, 0.00988868, -0.00296394, 0.00000000, 0.00000000, 0.00000000, 0.00000000
1, 0.1500, 60, 1.00612676, -0.01673205, -0.04073016, 0.10990223, 1.62588930, -2.47866988, 56.03624725, -6.05086231, -58.11166382, 12.82142448, 87.40424347, -130.16502380, -0.23271823, 0.65668583, 0.21606275, -0.68404889, -0.00715286, 0.00668149, -0.00343114, 0.00000000, 0.00000000, 0.00000000, 0.00000000
1, 0.1525, 61, 1.00284517, -0.01344089, -0.03981768, -0.03119072, 1.28055573, -2.62277198, 56.03624725, -6.05086231, -58.11166382, 12.69579411, 87.40869904, -130.29066467, -0.23267350, 0.65669245, 0.21610729, -0.68404371, -0.00386775, 0.00350471, -0.00428775, 0.00000000, 0.00000000, 0.00000000, 0.00000000
1, 0.1550, 62, 1.00283527, -0.01073513, -0.03989843, -0.10307233, 1.27988422, -2.62254596, 56.03624725, -6.05086231, -58.11166382, 12.56949139, 87.41330719, -130.41683960, -0.23262981, 0.65669864, 0.21615289, -0.68403822, -0.00385422, 0.00091348, -0.00415130, 0.00000000, 0.00000000, 0.00000000, 0.00000000
1, 0.1575, 63, 0.99859220, -0.01026847, -0.03951600, -0.31824699, 1.20973098, -2.69273424, 56.03624725, -6.05086231, -58.11166382, 12.43764782, 87.41770172, -130.54800415, -0.23258847, 0.65670240, 0.21620236, -0.68403304, 0.00039232, 0.00056478, -0.00448109, 0.00000000, 0.00000000, 0.00000000, 0.00000000
1, 0.1600, 64, 0.99690670, -0.01141384, -0.03733053, -0.31540760, 0.92728806, -2.34687257, 56.03624725, -6.05086231, -58.11166382, 12.32072258, 87.42119598, -130.66427612, -0.23255359, 0.65670353, 0.21624540, -0.68403018, 0.00208056, 0.00181305, -0.00662628, 0.00000000, 0.00000000, 0.00000000, 0.00000000
1, 0.1625, 65, 0.99606204, -0.01070639, -0.03548501, -0.38481343, 0.71121424, -1.85999525, 55.36392975, -6.60625553, -58.40397644, 12.22720909, 87.42400360, -130.75697327, -0.23252799, 0.65670341, 0.21628138, -0.68402761, 0.00292742, 0.00118740, -0.00844103, 0.00000000, 0.00000000, 0.00000000, 0.00000000
1, 0.1650, 66, 0.99509609, -0.00915129, -0.03277088, -0.16758911, 0.57035941, -1.58285511, 55.36392975, -6.60625553, -58.40397644, 12.14749622, 87.42613220, -130.83627319, -0.23250407, 0.65670365, 0.21630946, -0.68402666, 0.00389504, -0.00029837, -0.01113027, 0.00000000, 0.00000000, 0.00000000, 0.00000000
1, 0.1675, 67, 0.99642897, -0.00926451, -0.03301974, 0.12324680, 0.22246340, -1.30876279, 55.36392975, -6.60625553, -58.40397644, 12.07917213, 87.42750549, -130.90498352, -0.23248173, 0.65670139, 0.21632750, -0.68403071, 0.00256324, -0.00012832, -0.01087174, 0.00000000, 0.00000000, 0.00000000, 0.00000000
1, 0.1700, 68, 0.99461210, -0.00939937, -0.03277369, 0.26916617, 0.01169953, -1.03233731, 55.36392975, -6.60625553, -58.40397644, 12.02383614, 87.42803955, -130.96107483, -0.23246241, 0.65669805, 0.21633834, -0.68403703, 0.00438052, 0.00005100, -0.01111712, 0.00000000, 0.00000000, 0.00000000, 0.00000000
1, 0.1725, 69, 0.99425745, -0.01040692, -0.03119982, 0.20016791, -0.33515972, -1.03681517, 55.36392975, -6.60625553, -58.40397644, 11.96398735, 87.42780304, -131.02145386, -0.23244566, 0.65668917, 0.21634851, -0.68404806, 0.00473499, 0.00110338, -0.01270558, 0.00000000, 0.00000000, 0.00000000, 0.00000000
1, 0.1750, 70, 0.99509883, -0.01206986, -0.03501512, 0.41681555, -0.40677702, -0.75873405, 55.56854630, -5.72931862, -57.64396286, 11.91900539, 87.42704773, -131.06755066, -0.23243028, 0.65668160, 0.21635111, -0.68405968, 0.00389302, 0.00279863, -0.00890784, 0.00000000, 0.00000000, 0.00000000, 0.00000000
1, 0.1775, 71, 0.99630672, -0.01216802, -0.03636327, 0.56194514, -0.54610628, -0.62121761, 55.56854630, -5.72931862, -57.64396286, 11.88034344, 87.42613220, -131.10762024, -0.23241554, 0.65667337, 0.21634884, -0.68407333, 0.00268441, 0.00292277, -0.00758330, 0.00000000, 0.00000000, 0.00000000, 0.00000000
1, 0.1800, 72, 0.99630672, -0.01216802, -0.03636327, 0.56194514, -0.54610628, -0.62121761, 55.56854630, -5.72931862, -57.64396286, 12.09956932, 87.44245148, -130.89143372, -0.23239918, 0.65679884, 0.21633112, -0.68396401, 0.00269717, 0.00281441, -0.00726903, 0.00000000, 0.00000000, 0.00000000, 0.00000000
1, 0.1825, 73, 0.99678469, -0.01177445, -0.03794679, 0.63634640, -0.82458210, -0.48535669, 55.56854630, -5.72931862, -57.64396286, 12.06501865, 87.44062042, -130.92768860, -0.23238671, 0.65678751, 0.21632440, -0.68398130, 0.00221777, 0.00244075, -0.00572110, 0.00000000, 0.00000000, 0.00000000, 0.00000000
1, 0.1850, 74, 0.99678469, -0.01177445, -0.03794679, 0.63634640, -0.82458210, -0.48535669, 55.56854630, -5.72931862, -57.64396286, 12.03046989, 87.43893433, -130.96380615, -0.23237424, 0.65677619, 0.21631768, -0.68399858, 0.00221646, 0.00246069, -0.00575673, 0.00000000, 0.00000000, 0.00000000, 0.00000000
1, 0.1875, 75, 0.99669755, -0.01833441, -0.03486991, 0.41702864, -0.40897405, -0.61888438, 55.65623856, -6.05086231, -57.61473083, 11.99293518, 87.43809509, -131.00247192, -0.23236096, 0.65676928, 0.21631825, -0.68400955, 0.00230294, 0.00904682, -0.00885131, 0.00000000, 0.00000000, 0.00000000, 0.00000000
1, 0.1900, 76, 0.99878013, -0.01986747, -0.03013194, 0.55938137, -0.20321402, -0.40673926, 55.65623856, -6.05086231, -57.61473083, 11.96971703, 87.43801880, -131.02706909, -0.23234780, 0.65676713, 0.21631467, -0.68401712, 0.00022030, 0.01059656, -0.01359790, 0.00000000, 0.00000000, 0.00000000, 0.00000000
1, 0.1925, 77, 0.99928135, -0.02162764, -0.02722718, 1.06381261, -0.33808744, -0.34027687, 55.65623856, -6.05086231, -57.61473083, 11.94984055, 87.43725586, -131.04963684, -0.23232910, 0.65676588, 0.21630199, -0.68402874, -0.00028151, 0.01236955, -0.01651701, 0.00000000, 0.00000000, 0.00000000, 0.00000000
1, 0.1950, 78, 0.99929202, -0.02336748, -0.02590966, 1.56572402, -0.19381364, -0.40990111, 55.65623856, -6.05086231, -57.61473083, 11.92909813, 87.43695831, -131.07426453, -0.23230146, 0.65676898, 0.21628352, -0.68404096, -0.00029242, 0.01412430, -0.01784230, 0.00000000, 0.00000000, 0.00000000, 0.00000000
1, 0.1975, 79, 1.00113201, -0.02986803, -0.02637954, 1.99481332, 0.08606681, -0.33756840, 55.65623856, -6.05086231, -57.61473083, 11.91666889, 87.43741608, -131.09172058, -0.23226744, 0.65677881, 0.21625902, -0.68405086, -0.00213206, 0.02063573, -0.01736785, 0.00000000, 0.00000000, 0.00000000, 0.00000000
1, 0.2000, 80, 1.00234747, -0.03423678, -0.02999263, 2.49960780, -0.11584716, -0.41189635, 55.77316666, -6.10932446, -58.25782013, 11.89908314, 87.43741608, -131.11557007, -0.23222603, 0.65678781, 0.21622704, -0.68406641, -0.00334752, 0.02501765, -0.01375880, 0.00000000, 0.00000000, 0.00000000, 0.00000000
1, 0.2025, 81, 1.00366414, -0.03428400, -0.03488395, 2.71666336, -0.31824991, -0.62517071, 55.77316666, -6.10932446, -58.25782013, 11.86809540, 87.43695831, -131.15344238, -0.23217925, 0.65679383, 0.21619381, -0.68408692, -0.00466454, 0.02508688, -0.00888027, 0.00000000, 0.00000000, 0.00000000, 0.00000000
1, 0.2050, 82, 1.00557959, -0.03187540, -0.03937231, 2.78858876, -0.38132343, -0.97596163, 55.77316666, -6.10932446, -58.25782013, 11.81736660, 87.43657684, -131.21116638, -0.23212653, 0.65679771, 0.21616425, -0.68411046, -0.00658029, 0.02271551, -0.00440735, 0.00000000, 0.00000000, 0.00000000, 0.00000000
1, 0.2075, 83, 1.00774693, -0.03059444, -0.04228987, 2.78899598, -0.51210892, -1.46731699, 55.77316666, -6.10932446, -58.25782013, 11.73833847, 87.43588257, -131.29725647, -0.23206708, 0.65679729, 0.21614106, -0.68413836, -0.00874817, 0.02149317, -0.00151090, 0.00000000, 0.00000000, 0.00000000, 0.00000000
1, 0.2100, 84, 1.00760853, -0.02870793, -0.04531565, 2.42905545, -0.50997359, -1.81581187, 55.77316666, -6.10932446, -58.25782013, 11.63932514, 87.43566132, -131.40246582, -0.23200756, 0.65679336, 0.21612824, -0.68416631, -0.00860995, 0.01968120, 0.00149352, 0.00000000, 0.00000000, 0.00000000, 0.00000000
1, 0.2125, 85, 1.00540853, -0.02670638, -0.04845763, 2.28418303, -0.43658635, -2.16404390, 55.33469772, -4.88161373, -57.87781143, 11.52180481, 87.43566132, -131.52578735, -0.23194459, 0.65678823, 0.21612296, -0.68419427, -0.00640994, 0.01776962, 0.00461743, 0.00000000, 0.00000000, 0.00000000, 0.00000000
1, 0.2150, 86, 1.00127339, -0.02570062, -0.05136650, 2.06879497, -0.50454271, -2.37408137, 55.33469772, -4.88161373, -57.87781143, 11.39158916, 87.43566132, -131.66134644, -0.23188190, 0.65678000, 0.21612355, -0.68422323, -0.00227481, 0.01686334, 0.00750522, 0.00000000, 0.00000000, 0.00000000, 0.00000000
1, 0.2175, 87, 0.99869645, -0.02098111, -0.05556589, 1.78220928, -0.64350665, -2.51490903, 55.33469772, -4.88161373, -57.87781143, 11.25135231, 87.43527985, -131.80619812, -0.23182186, 0.65676755, 0.21612974, -0.68425357, 0.00030184, 0.01225004, 0.01167725, 0.00000000, 0.00000000, 0.00000000, 0.00000000
1, 0.2200, 88, 0.99529541, -0.01927271, -0.05577716, 1.49641275, -0.85390520, -2.51682806, 55.33469772, -4.88161373, -57.87781143, 11.10807705, 87.43436432, -131.95332336, -0.23176688, 0.65675050, 0.21613914, -0.68428558, 0.00370216, 0.01064848, 0.01185188, 0.00000000, 0.00000000, 0.00000000, 0.00000000
1, 0.2225, 89, 0.99418974, -0.01473533, -0.05533884, 1.06685317, -1.06564653, -2.51829505, 55.33469772, -4.88161373, -57.87781143, 10.96153641, 87.43305969, -132.10266113, -0.23171902, 0.65672815, 0.21615390, -0.68431860, 0.00480682, 0.00621881, 0.01136755, 0.00000000, 0.00000000, 0.00000000, 0.00000000
1, 0.2250, 90, 0.99347264, -0.01405337, -0.05166101, 0.56620151, -1.34949398, -2.38062763, 55.65623856, -4.96930695, -58.25782013, 10.81846714, 87.43084717, -132.24726868, -0.23168173, 0.65669966, 0.21617274, -0.68435264, 0.00552219, 0.00563951, 0.00763115, 0.00000000, 0.00000000, 0.00000000, 0.00000000
1, 0.2275, 91, 0.99190652, -0.01228306, -0.04698720, 0.49510977, -1.42159998, -2.24149299, 55.65623856, -4.96930695, -58.25782013, 10.68233395, 87.42833710, -132.38484192, -0.23164788, 0.65667039, 0.21619028, -0.68438667, 0.00708634, 0.00396595, 0.00289560, 0.00000000, 0.00000000, 0.00000000, 0.00000000
1, 0.2300, 92, 0.99044752, -0.00863728, -0.04448445, 0.78310627, -1.48705316, -2.31326175, 55.65623856, -4.96930695, -58.25782013, 10.55032539, 87.42506409, -132.51882935, -0.23161404, 0.65663767, 0.21620058, -0.68442625, 0.00854278, 0.00041097, 0.00031581, 0.00000000, 0.00000000, 0.00000000, 0.00000000
1, 0.2325, 93, 0.99019766, -0.00691245, -0.04482412, 0.99770427, -1.34766221, -2.24213314, 55.65623856, -4.96930695, -58.25782013, 10.41669178, 87.42271423, -132.65505981, -0.23157263, 0.65661204, 0.21621099, -0.68446159, 0.00879079, -0.00121804, 0.00059712, 0.00000000, 0.00000000, 0.00000000, 0.00000000
1, 0.2350, 94, 0.98874438, -0.00716679, -0.04470284, 1.28371382, -1.13946080, -2.10036445, 55.65623856, -4.96930695, -58.25782013, 10.29390812, 87.42089081, -132.78123474, -0.23152825, 0.65659165, 0.21621616, -0.68449455, 0.01024264, -0.00087468, 0.00042671, 0.00000000, 0.00000000, 0.00000000, 0.00000000
1, 0.2375, 95, 0.98935658, -0.00791532, -0.04373798, 1.35429156, -0.93547082, -1.81806874, 56.91318130, -5.26161957, -58.25782013, 10.18882942, 87.41929626, -132.88983154, -0.23148608, 0.65657592, 0.21621723, -0.68452346, 0.00962919, -0.00004953, -0.00057838, 0.00000000, 0.00000000, 0.00000000, 0.00000000
1, 0.2400, 96, 0.98937374, -0.01052944, -0.04145628, 1.56873918, -0.73123628, -1.46629989, 56.91318130, -5.26161957, -58.25782013, 10.10552883, 87.41823578, -132.97711182, -0.23144515, 0.65656602, 0.21621113, -0.68454874, 0.00961119, 0.00262550, -0.00289138, 0.00000000, 0.00000000, 0.00000000, 0.00000000
1, 0.3050, 97, 0.99276978, -0.01440727, -0.00975127, 5.80982304, -0.94550174, -2.95180964, 56.79625702, -5.37854433, -57.79011917, 6.52298689, 87.44873810, -136.76660156, -0.22924051, 0.65668333, 0.21599545, -0.68524581, 0.00623900, 0.00935038, -0.03447472, 0.00000000, 0.00000000, 0.00000000, 0.00000000
1, 0.3075, 98, 0.99678475, -0.01905226, -0.01031939, 6.31352663, -0.94629419, -2.60376620, 56.79625702, -5.37854433, -57.79011917, 6.38770676, 87.44705200, -136.91784668, -0.22911559, 0.65668851, 0.21593364, -0.68530214, 0.00222272, 0.01409668, -0.03394644, 0.00000000, 0.00000000, 0.00000000, 0.00000000
1, 0.3100, 99, 0.99921346, -0.02208766, -0.01220379, 6.67571163, -1.28802621, -2.67952394, 56.79625702, -5.37854433, -57.79011917, 6.24719810, 87.44460297, -137.07518005, -0.22898597, 0.65669000, 0.21586578, -0.68536544, -0.00020790, 0.01723597, -0.03211680, 0.00000000, 0.00000000, 0.00000000, 0.00000000
1, 0.3125, 100, 0.99970376, -0.02695318, -0.01570081, 6.96511889, -1.55789673, -2.96389008, 56.79625702, -5.37854433, -57.79011917, 6.09031200, 87.44168854, -137.24966431, -0.22884916, 0.65668750, 0.21579628, -0.68543530, -0.00070047, 0.02221717, -0.02868616, 0.00000000, 0.00000000, 0.00000000, 0.00000000
1, 0.3150, 101, 1.00731003, -0.02485549, -0.02240514, 6.96956348, -2.17334485, -3.46183062, 56.70856476, -5.46623802, -57.64396286, 5.90259218, 87.43703461, -137.45500183, -0.22870778, 0.65667355, 0.21573080, -0.68551654, -0.00831038, 0.02025687, -0.02207509, 0.00000000, 0.00000000, 0.00000000, 0.00000000
1, 0.3175, 102, 1.01127338, -0.01596474, -0.02386571, 7.33142757, -2.51178169, -3.74736285, 56.70856476, -5.46623802, -57.64396286, 5.69875431, 87.43176270, -137.67738342, -0.22855851, 0.65665495, 0.21566232, -0.68560570, -0.01227785, 0.01151522, -0.02072252, 0.00000000, 0.00000000, 0.00000000, 0.00000000
1, 0.3200, 103, 1.01041806, -0.01509269, -0.02495039, 7.47602415, -2.64561820, -3.95947051, 56.70856476, -5.46623802, -57.64396286, 5.48371267, 87.42613220, -137.91140747, -0.22840464, 0.65663397, 0.21559402, -0.68569851, -0.01142693, 0.01080119, -0.01975180, 0.00000000, 0.00000000, 0.00000000, 0.00000000
1, 0.3225, 104, 1.00935543, -0.01921113, -0.02097874, 7.33345842, -2.84918118, -4.31146479, 56.70856476, -5.46623802, -57.64396286, 5.24878168, 87.41997528, -138.16487122, -0.22824846, 0.65660757, 0.21553186, -0.68579525, -0.01036912, 0.01509325, -0.02384626, 0.00000000, 0.00000000, 0.00000000, 0.00000000
1, 0.3250, 105, 1.00794256, -0.02508153, -0.01495585, 7.18905687, -2.84393287, -4.73056221, 56.70856476, -5.46623802, -57.64396286, 4.99160099, 87.41407013, -138.44035339, -0.22808807, 0.65657860, 0.21547790, -0.68589336, -0.00896090, 0.02115576, -0.02999182, 0.00000000, 0.00000000, 0.00000000, 0.00000000
1, 0.3275, 106, 1.00917828, -0.02541376, -0.00848700, 7.40427494, -2.83752465, -5.01093912, 55.83162689, -5.46623802, -57.99473953, 4.72078180, 87.40802002, -138.72993469, -0.22792035, 0.65654945, 0.21542476, -0.68599373, -0.01020140, 0.02169187, -0.03658309, 0.00000000, 0.00000000, 0.00000000, 0.00000000
1, 0.3300, 107, 1.00883746, -0.03023327, -0.00684932, 7.61823416, -2.69154263, -5.35935974, 55.83162689, -5.46623802, -57.99473953, 4.62866068, 87.41330719, -138.84208679, -0.22776462, 0.65660745, 0.21534666, -0.68601441, -0.00985640, 0.02659121, -0.03813565, 0.00000000, 0.00000000, 0.00000000, 0.00000000
1, 0.3325, 108, 1.01115108, -0.03365707, -0.00739526, 8.04909706, -2.68311977, -5.64041424, 55.83162689, -5.46623802, -57.99473953, 4.32628107, 87.40763855, -139.16487122, -0.22757751, 0.65658075, 0.21529368, -0.68611872, -0.01217449, 0.03024512, -0.03770551, 0.00000000, 0.00000000, 0.00000000, 0.00000000
1, 0.3350, 109, 1.01272738, -0.03486319, -0.00851673, 8.48122025, -2.81427026, -5.85342550, 55.83162689, -5.46623802, -57.99473953, 4.01426172, 87.40176392, -139.49845886, -0.22738162, 0.65655321, 0.21523659, -0.68622792, -0.01375544, 0.03168963, -0.03670554, 0.00000000, 0.00000000, 0.00000000, 0.00000000
1, 0.3375, 110, 1.01612151, -0.03714966, -0.01088044, 8.98501205, -2.94255280, -6.20651197, 55.83162689, -5.46623802, -57.99473953, 3.68507791, 87.39529419, -139.85046387, -0.22717381, 0.65652460, 0.21517637, -0.68634307, -0.01715470, 0.03422892, -0.03446886, 0.00000000, 0.00000000, 0.00000000, 0.00000000
1, 0.3400, 111, 1.02095950, -0.03720481, -0.01406833, 9.19728470, -2.65260339, -6.90267515, 56.76702499, -5.29085064, -58.46243668, 3.32094383, 87.39002991, -140.23797607, -0.22695114, 0.65649801, 0.21512435, -0.68645841, -0.02199686, 0.03456672, -0.03139551, 0.00000000, 0.00000000, 0.00000000, 0.00000000
1, 0.3425, 112, 1.02119601, -0.03778523, -0.01639945, 9.55368328, -2.42835093, -7.74007988, 56.76702499, -5.29085064, -58.46243668, 2.91419458, 87.38478851, -140.66906738, -0.22670975, 0.65647262, 0.21508008, -0.68657631, -0.02223754, 0.03546552, -0.02916916, 0.00000000, 0.00000000, 0.00000000, 0.00000000
1, 0.3450, 113, 1.02410448, -0.03958580, -0.01851032, 9.90993309, -2.13925529, -8.29684544, 56.76702499, -5.29085064, -58.46243668, 2.48017430, 87.38052368, -141.12832642, -0.22645359, 0.65645063, 0.21503988, -0.68669450, -0.02514946, 0.03760800, -0.02715067, 0.00000000, 0.00000000, 0.00000000, 0.00000000
1, 0.3475, 114, 1.02289367, -0.04080839, -0.01938194, 10.12335873, -1.98778045, -8.99489021, 56.76702499, -5.29085064, -58.46243668, 2.01052260, 87.37641907, -141.62384033, -0.22618315, 0.65642858, 0.21500719, -0.68681484, -0.02394187, 0.03920246, -0.02636495, 0.00000000, 0.00000000, 0.00000000, 0.00000000
1, 0.3500, 115, 1.02326798, -0.04206185, -0.01756894, 10.48511791, -2.32511806, -9.35034657, 56.76702499, -5.29085064, -58.46243668, 1.52336514, 87.37120056, -142.13774109, -0.22590379, 0.65640157, 0.21497251, -0.68694347, -0.02432036, 0.04084258, -0.02827872, 0.00000000, 0.00000000, 0.00000000, 0.00000000
1, 0.3525, 116, 1.02133572, -0.04004047, -0.01337932, 10.98995495, -2.59077740, -9.77523994, 56.73779678, -5.49546909, -57.96550751, 1.01624894, 87.36540222, -142.67291260, -0.22561203, 0.65637106, 0.21493499, -0.68708020, -0.02239275, 0.03922520, -0.03258066, 0.00000000, 0.00000000, 0.00000000, 0.00000000
1, 0.3550, 117, 1.01805449, -0.03566049, -0.01122819, 11.56625080, -2.85137081, -10.48005867, 56.73779678, -5.49546909, -57.96550751, 0.47460118, 87.35857391, -143.24409485, -0.22530268, 0.65633613, 0.21489765, -0.68722683, -0.01911700, 0.03527876, -0.03485572, 0.00000000, 0.00000000, 0.00000000, 0.00000000
1, 0.3575, 118, 1.01331234, -0.03150358, -0.01115484, 12.28761292, -3.31393957, -11.46785069, 56.73779678, -5.49546909, -57.96550751, -0.11572439, 87.35044098, -143.86578369, -0.22497031, 0.65629297, 0.21486132, -0.68738818, -0.01438141, 0.03159695, -0.03507344, 0.00000000, 0.00000000, 0.00000000, 0.00000000
1, 0.3600, 119, 1.00941598, -0.02563587, -0.01007945, 12.72208405, -3.78578568, -12.03519058, 56.73779678, -5.49546909, -57.96550751, -0.73136473, 87.34070587, -144.51393127, -0.22462539, 0.65624219, 0.21482424, -0.68756104, -0.01049292, 0.02622810, -0.03631401, 0.00000000, 0.00000000, 0.00000000, 0.00000000
1, 0.3625, 120, 1.00370884, -0.02271431, -0.00990084, 13.15446568, -3.98287845, -12.45891571, 56.73779678, -5.49546909, -57.96550751, -1.36369121, 87.33026886, -145.17985535, -0.22426881, 0.65618849, 0.21478575, -0.68774068, -0.00479424, 0.02382287, -0.03666665, 0.00000000, 0.00000000, 0.00000000, 0.00000000
1, 0.3650, 121, 0.99755406, -0.02200608, -0.00120138, 13.73439026, -4.59734869, -12.67896366, 56.56240845, -6.08009338, -58.25782013, -2.00003195, 87.31776428, -145.85130310, -0.22390346, 0.65612721, 0.21473867, -0.68793285, 0.00135034, 0.02363930, -0.04556739, 0.00000000, 0.00000000, 0.00000000, 0.00000000
1, 0.3675, 122, 0.99165410, -0.02134708, 0.01104054, 14.31358433, -5.07773924, -12.61742973, 56.56240845, -6.08009338, -58.25782013, -2.62441897, 87.30386353, -146.51219177, -0.22353299, 0.65606177, 0.21467964, -0.68813425, 0.00723893, 0.02350102, -0.05803190, 0.00000000, 0.00000000, 0.00000000, 0.00000000
1, 0.3700, 123, 0.98781449, -0.02152496, 0.02228784, 15.18099117, -5.62577868, -12.48781681, 56.56240845, -6.08009338, -58.25782013, -3.23142171, 87.28815460, -147.15783691, -0.22315452, 0.65599275, 0.21460298, -0.68834668, 0.01106560, 0.02419197, -0.06952600, 0.00000000, 0.00000000, 0.00000000, 0.00000000
1, 0.3725, 124, 0.98354053, -0.02372765, 0.04609138, 16.77413368, -6.99795532, -12.37175083, 56.56240845, -6.08009338, -58.25782013, -3.81629133, 87.26880646, -147.78533936, -0.22276141, 0.65591133, 0.21449403, -0.68858552, 0.01532352, 0.02689919, -0.09363668, 0.00000000, 0.00000000, 0.00000000, 0.00000000
1, 0.3750, 125, 0.98525763, -0.02428607, 0.05133380, 18.22193146, -8.22860622, -12.53305149, 56.56240845, -6.08009338, -58.25782013, -4.39238691, 87.24596405, -148.40776062, -0.22235085, 0.65581751, 0.21435964, -0.68884933, 0.01358736, 0.02796588, -0.09924047, 0.00000000, 0.00000000, 0.00000000, 0.00000000
1, 0.3775, 126, 0.98525763, -0.02428607, 0.05133380, 18.22193146, -8.22860622, -12.53305149, 56.94241333, -5.08623219, -57.64396286, -4.95863104, 87.22289276, -149.02024841, -0.22194023, 0.65572357, 0.21422517, -0.68911302, 0.01356792, 0.02847390, -0.09960221, 0.00000000, 0.00000000, 0.00000000, 0.00000000
1, 0.3800, 127, 0.98268235, -0.01933116, 0.04787121, 23.50049019, -11.85577202, -12.17984962, 56.94241333, -5.08623219, -57.64396286, -5.43559122, 87.20056915, -149.55741882, -0.22146760, 0.65566713, 0.21398877, -0.68939215, 0.01612425, 0.02395746, -0.09649004, 0.00000000, 0.00000000, 0.00000000, 0.00000000
1, 0.3825, 128, 0.98268235, -0.01933116, 0.04787121, 23.50049019, -11.85577202, -12.17984962, 56.94241333, -5.08623219, -57.64396286, -5.93326378, 87.16824341, -150.11451721, -0.22100358, 0.65554535, 0.21375224, -0.68973017, 0.01609653, 0.02443817, -0.09701176, 0.00000000, 0.00000000, 0.00000000, 0.00000000
1, 0.3850, 129, 0.98076594, -0.01288321, 0.02610050, 25.89093208, -14.04811573, -12.28732967, 56.94241333, -5.08623219, -57.64396286, -6.40603733, 87.12992859, -150.65269470, -0.22051388, 0.65540135, 0.21347064, -0.69011092, 0.01797968, 0.01846987, -0.07585932, 0.00000000, 0.00000000, 0.00000000, 0.00000000
1, 0.3875, 130, 0.98056883, -0.00809293, 0.00906659, 26.54536057, -14.94216156, -12.30159187, 56.94241333, -5.08623219, -57.64396286, -6.85926008, 87.08929443, -151.17291260, -0.22001861, 0.65524662, 0.21317491, -0.69050717, 0.01814103, 0.01415765, -0.05948325, 0.00000000, 0.00000000, 0.00000000, 0.00000000
1, 0.3900, 131, 0.97928083, -0.00270187, -0.00734489, 26.76933670, -15.97541523, -12.52615643, 56.62086868, -6.25548077, -58.14089203, -7.30288792, 87.04582977, -151.68414307, -0.21952148, 0.65507603, 0.21287398, -0.69092000, 0.01939023, 0.00925314, -0.04377531, 0.00000000, 0.00000000, 0.00000000, 0.00000000
1, 0.3925, 132, 0.97908628, 0.00292620, -0.02277741, 26.63458824, -17.08236313, -12.68060589, 56.62086868, -6.25548077, -58.14089203, -7.73311234, 86.99935150, -152.18170166, -0.21902896, 0.65488702, 0.21257187, -0.69134837, 0.01954264, 0.00411776, -0.02909506, 0.00000000, 0.00000000, 0.00000000, 0.00000000
1, 0.3950, 133, 0.97649008, 0.00651214, -0.03371496, 26.21115685, -18.05352020, -12.83226967, 56.62086868, -6.25548077, -58.14089203, -8.15079403, 86.95017242, -152.66552734, -0.21854457, 0.65468025, 0.21227352, -0.69178897, 0.02209353, 0.00103118, -0.01895247, 0.00000000, 0.00000000, 0.00000000, 0.00000000
1, 0.3975, 134, 0.97568941, 0.01371264, -0.04753359, 25.35842514, -19.30236053, -13.19611931, 56.62086868, -6.25548077, -58.14089203, -8.56426334, 86.89773560, -153.14303589, -0.21807256, 0.65444851, 0.21198720, -0.69224483, 0.02284509, -0.00565308, -0.00598354, 0.00000000, 0.00000000, 0.00000000, 0.00000000
1, 0.4000, 135, 0.97343874, 0.02234133, -0.05851686, 24.28900337, -20.41584015, -13.48748207, 56.62086868, -6.25548077, -58.14089203, -8.97066879, 86.84219360, -153.61091614, -0.21761644, 0.65419316, 0.21171577, -0.69271266, 0.02504283, -0.01375132, 0.00410134, 0.00000000, 0.00000000, 0.00000000, 0.00000000
1, 0.4025, 136, 0.96754313, 0.03486362, -0.06784448, 23.28872871, -21.24730301, -14.05500793, 56.15317154, -5.29085064, -57.96550751, -9.38328743, 86.78395844, -154.08245850, -0.21716975, 0.65391755, 0.21146350, -0.69319004, 0.03088195, -0.02571706, 0.01249432, 0.00000000, 0.00000000, 0.00000000, 0.00000000
1, 0.4050, 137, 0.96166992, 0.04584151, -0.07230789, 22.21447754, -21.80468369, -14.47869587, 56.15317154, -5.29085064, -57.96550751, -9.79695034, 86.72418213, -154.55239868, -0.21673439, 0.65362602, 0.21123073, -0.69367194, 0.03669608, -0.03611832, 0.01599875, 0.00000000, 0.00000000, 0.00000000, 0.00000000
1, 0.4075, 138, 0.95255136, 0.05354248, -0.07217132, 20.85139465, -22.16143036, -14.61895752, 56.15317154, -5.29085064, -57.96550751, -10.20132542, 86.66331482, -155.00967407, -0.21631791, 0.65332168, 0.21101880, -0.69415301, 0.04575336, -0.04323415, 0.01488765, 0.00000000, 0.00000000, 0.00000000, 0.00000000
1, 0.4100, 139, 0.94430280, 0.05885826, -0.06828494, 19.48412704, -21.96867371, -14.47199535, 56.15317154, -5.29085064, -57.96550751, -10.58901691, 86.60283661, -155.44685364, -0.21592212, 0.65301412, 0.21082628, -0.69462395, 0.05393994, -0.04796870, 0.01003531, 0.00000000, 0.00000000, 0.00000000, 0.00000000
1, 0.4125, 140, 0.93472332, 0.06633852, -0.06142994, 18.40769958, -22.12381172, -14.05093956, 56.15317154, -5.29085064, -57.96550751, -10.94664764, 86.54183960, -155.85119629, -0.21554865, 0.65270078, 0.21064325, -0.69508982, 0.06345576, -0.05488412, 0.00220775, 0.00000000, 0.00000000, 0.00000000, 0.00000000
1, 0.4150, 141, 0.92758721, 0.06842204, -0.05466257, 17.97873497, -22.27839851, -13.28229141, 56.41625214, -4.91084480, -58.22858810, -11.26025105, 86.48077393, -156.21044922, -0.21519354, 0.65238631, 0.21045493, -0.69555199, 0.07052702, -0.05643599, -0.00553909, 0.00000000, 0.00000000, 0.00000000, 0.00000000
1, 0.4175, 142, 0.92577255, 0.07142727, -0.05045813, 18.19817543, -22.56871414, -12.30778599, 56.41625214, -4.91084480, -58.22858810, -11.52133846, 86.41949463, -156.51759338, -0.21485136, 0.65207261, 0.21024798, -0.69601440, 0.07227547, -0.05895343, -0.01073617, 0.00000000, 0.00000000, 0.00000000, 0.00000000
1, 0.4200, 143, 0.92928183, 0.07352791, -0.05006656, 18.92079163, -22.85432816, -11.33485889, 56.41625214, -4.91084480, -58.22858810, -11.73137093, 86.35780334, -156.77543640, -0.21451487, 0.65176213, 0.21001475, -0.69647926, 0.06869836, -0.06061142, -0.01213339, 0.00000000, 0.00000000, 0.00000000, 0.00000000
1, 0.4225, 144, 0.93204713, 0.07375414, -0.05642303, 19.93030930, -23.00427628, -10.01132965, 56.41625214, -4.91084480, -58.22858810, -11.87988281, 86.29633331, -156.97419739, -0.21418470, 0.65145981, 0.20974655, -0.69694436, 0.06586432, -0.06045625, -0.00678997, 0.00000000, 0.00000000, 0.00000000, 0.00000000
1, 0.4250, 145, 0.93126410, 0.06294409, -0.04864408, 20.72644997, -23.36944199, -8.34032154, 56.41625214, -4.91084480, -58.22858810, -11.95580196, 86.23493195, -157.10215759, -0.21387020, 0.65116304, 0.20944071, -0.69741011, 0.06657755, -0.04934070, -0.01559849, 0.00000000, 0.00000000, 0.00000000, 0.00000000
1, 0.4275, 146, 0.92310071, 0.08015841, -0.04286494, 21.15521431, -22.76973724, -6.58508921, 56.41625214, -4.91084480, -58.22858810, -11.96785927, 86.17575073, -157.16728210, -0.21357346, 0.65088505, 0.20910609, -0.69786078, 0.07467258, -0.06632808, -0.02238164, 0.00000000, 0.00000000, 0.00000000, 0.00000000
1, 0.4300, 147, 0.91542900, 0.09662016, -0.03587636, 22.15636635, -22.13719940, -6.57978392, 57.17626190, -4.29698896, -58.40397644, -12.10571098, 86.11891937, -157.36145020, -0.21320255, 0.65062189, 0.20880692, -0.69830906, 0.08227766, -0.08242513, -0.03030535, 0.00000000, 0.00000000, 0.00000000, 0.00000000
1, 0.4325, 148, 0.90805507, 0.09286887, -0.03384133, 23.29989624, -21.48903656, -7.48395348, 57.17626190, -4.29698896, -58.40397644, -12.14999580, 86.06246948, -157.46421814, -0.21285568, 0.65036863, 0.20845821, -0.69875491, 0.08958448, -0.07841583, -0.03329046, 0.00000000, 0.00000000, 0.00000000, 0.00000000
1, 0.4350, 149, 0.90178055, 0.08169809, -0.03705443, 24.37722397, -21.40643120, -7.69617462, 57.17626190, -4.29698896, -58.40397644, -12.19755650, 86.00603485, -157.57296753, -0.21248978, 0.65012032, 0.20809634, -0.69920504, 0.09579083, -0.06698193, -0.03102466, 0.00000000, 0.00000000, 0.00000000, 0.00000000
1, 0.4375, 150, 0.89695692, 0.07672782, -0.03492109, 25.53826332, -22.52106667, -6.59604359, 57.17626190, -4.29698896, -58.40397644, -12.19376373, 85.94757080, -157.63317871, -0.21212916, 0.64986503, 0.20769589, -0.69967079, 0.10054278, -0.06180097, -0.03415476, 0.00000000, 0.00000000, 0.00000000, 0.00000000
1, 0.4400, 151, 0.89209950, 0.08061751, -0.03338523, 26.77271652, -23.71415329, -4.86775446, 57.17626190, -4.29698896, -58.40397644, -12.11856747, 85.88698578, -157.62490845, -0.21178266, 0.64960468, 0.20724641, -0.70015061, 0.10532501, -0.06556017, -0.03674020, 0.00000000, 0.00000000, 0.00000000, 0.00000000
1, 0.4425, 152, 0.89315277, 0.08961935, -0.03496034, 28.50724411, -24.55415154, -3.27619195, 57.32241821, -4.29698896, -58.28704834, -11.98099136, 85.82530975, -157.55842590, -0.21143955, 0.64934623, 0.20674387, -0.70064241, 0.10419393, -0.07450727, -0.03625256, 0.00000000, 0.00000000, 0.00000000, 0.00000000
1, 0.4450, 153, 0.89821410, 0.09582158, -0.03719750, 30.66654778, -24.69006157, -2.16605139, 57.32241821, -4.29698896, -58.28704834, -11.80342484, 85.76370239, -157.45724487, -0.21108328, 0.64910024, 0.20619182, -0.70114022, 0.09905374, -0.08071124, -0.03511007, 0.00000000, 0.00000000, 0.00000000, 0.00000000
1, 0.4475, 154, 0.90316224, 0.09484277, -0.04455447, 32.74594879, -23.92106056, -1.39307940, 57.32241821, -4.29698896, -58.28704834, -11.60464573, 85.70452881, -157.33998108, -0.21070577, 0.64887863, 0.20560041, -0.70163244, 0.09402877, -0.07977588, -0.02881553, 0.00000000, 0.00000000, 0.00000000, 0.00000000
1, 0.4500, 155, 0.90773195, 0.09113607, -0.05903987, 35.11542892, -23.49226379, -0.83548898, 57.32241821, -4.29698896, -58.28704834, -11.38910484, 85.64650726, -157.21192932, -0.21030119, 0.64867646, 0.20496666, -0.70212609, 0.08938272, -0.07614608, -0.01537530, 0.00000000, 0.00000000, 0.00000000, 0.00000000
1, 0.4525, 156, 0.90671366, 0.08830024, -0.07606664, 36.84385300, -23.76298904, -0.21534869, 57.32241821, -4.29698896, -58.28704834, -11.15239143, 85.58818817, -157.06686401, -0.20988265, 0.64848024, 0.20429620, -0.70262784, 0.09032322, -0.07342135, 0.00059361, 0.00000000, 0.00000000, 0.00000000, 0.00000000
1, 0.4550, 157, 0.90300548, 0.08712102, -0.09807265, 37.21758652, -25.36307907, 0.46113327, 57.05933762, -3.71236467, -58.95936966, -10.88877964, 85.52611542, -156.89579773, -0.20947610, 0.64826357, 0.20360292, -0.70315009, 0.09394747, -0.07238565, 0.02147215, 0.00000000, 0.00000000, 0.00000000, 0.00000000
1, 0.4575, 158, 0.89902776, 0.09719628, -0.11623987, 36.22410583, -26.83415985, 0.93401355, 57.05933762, -3.71236467, -58.95936966, -10.61038017, 85.46066284, -156.70736694, -0.20909721, 0.64802134, 0.20291130, -0.70368588, 0.09783545, -0.08262356, 0.03844906, 0.00000000, 0.00000000, 0.00000000, 0.00000000
1, 0.4600, 159, 0.89494586, 0.10865559, -0.12803143, 34.58336258, -28.30798340, 1.19915164, 57.05933762, -3.71236467, -58.95936966, -10.32634449, 85.39162445, -156.50914001, -0.20875190, 0.64774954, 0.20223419, -0.70423335, 0.10182127, -0.09425338, 0.04898763, 0.00000000, 0.00000000, 0.00000000, 0.00000000
1, 0.4625, 160, 0.88956404, 0.11633801, -0.13401268, 32.72525024, -29.57611084, 1.46778953, 57.05933762, -3.71236467, -58.95936966, -10.03918457, 85.31950378, -156.30310059, -0.20844238, 0.64745033, 0.20157588, -0.70478863, 0.10710114, -0.10211340, 0.05366221, 0.00000000, 0.00000000, 0.00000000, 0.00000000
1, 0.4650, 161, 0.88299382, 0.11943583, -0.13786212, 31.01042557, -30.77475739, 1.80684102, 57.05933762, -3.71236467, -58.95936966, -9.74757576, 85.24447632, -156.08831787, -0.20816737, 0.64712584, 0.20093350, -0.70535123, 0.11356369, -0.10539944, 0.05615427, 0.00000000, 0.00000000, 0.00000000, 0.00000000
1, 0.4675, 162, 0.87761289, 0.12759946, -0.14310281, 29.29938316, -32.39212799, 2.35002327, 56.47471619, -3.94621444, -58.40397644, -9.44436932, 85.16563416, -155.85754395, -0.20793177, 0.64677042, 0.20030226, -0.70592594, 0.11882955, -0.11377056, 0.05996873, 0.00000000, 0.00000000, 0.00000000, 0.00000000
1, 0.4700, 163, 0.87052929, 0.13674717, -0.14893594, 27.29844475, -33.79787827, 2.47738171, 56.47471619, -3.94621444, -58.40397644, -9.14448357, 85.08322144, -155.62507629, -0.20773232, 0.64638430, 0.19969347, -0.70651054, 0.12579089, -0.12312590, 0.06431621, 0.00000000, 0.00000000, 0.00000000, 0.00000000
1, 0.4725, 164, 0.84888953, 0.15253153, -0.15072732, 24.86333466, -34.86146927, 2.61079884, 56.47471619, -3.94621444, -58.40397644, -8.85097599, 84.99816132, -155.39283752, -0.20757374, 0.64597076, 0.19911538, -0.70709836, 0.14730236, -0.13911638, 0.06457753, 0.00000000, 0.00000000, 0.00000000, 0.00000000
1, 0.4750, 165, 0.83879262, 0.16074742, -0.15253602, 22.21389961, -36.00400162, 3.23342681, 56.47471619, -3.94621444, -58.40397644, -8.55071163, 84.91044617, -155.14717102, -0.20746686, 0.64552975, 0.19856398, -0.70768732, 0.15726462, -0.14755709, 0.06480848, 0.00000000, 0.00000000, 0.00000000, 0.00000000
1, 0.4775, 166, 0.83879262, 0.16074742, -0.15253602, 22.21389961, -36.00400162, 3.23342681, 56.47471619, -3.94621444, -58.40397644, -8.25973797, 84.82262421, -154.91076660, -0.20735979, 0.64508814, 0.19801243, -0.70827562, 0.15712744, -0.14778335, 0.06323124, 0.00000000, 0.00000000, 0.00000000, 0.00000000
1, 0.4800, 167, 0.81532443, 0.17486860, -0.15899265, 15.05413914, -39.21209717, 4.82194948, 57.14703369, -3.42005253, -58.78398132, -8.07267475, 84.71865082, -154.76033020, -0.20732373, 0.64450562, 0.19759916, -0.70893162, 0.18043026, -0.16194265, 0.06785841, 0.00000000, 0.00000000, 0.00000000, 0.00000000
1, 0.4825, 168, 0.81532443, 0.17486860, -0.15899265, 15.05413914, -39.21209717, 4.82194948, 57.14703369, -3.42005253, -58.78398132, -7.76225662, 84.62329865, -154.48637390, -0.20735557, 0.64398772, 0.19712107, -0.70952570, 0.18027568, -0.16221257, 0.06614647, 0.00000000, 0.00000000, 0.00000000, 0.00000000
1, 0.4850, 169, 0.79556113, 0.19370431, -0.17589365, 11.70002460, -41.83620453, 6.75565243, 57.14703369, -3.42005253, -58.78398132, -7.41146898, 84.52184296, -154.16339111, -0.20747559, 0.64342177, 0.19665568, -0.71013296, 0.19987142, -0.18138957, 0.08122376, 0.00000000, 0.00000000, 0.00000000, 0.00000000
1, 0.4875, 170, 0.78567630, 0.20216583, -0.18625286, 10.13144112, -43.24891281, 7.58090353, 57.14703369, -3.42005253, -58.78398132, -7.05139065, 84.41699219, -153.82705688, -0.20763628, 0.64282984, 0.19619644, -0.71074885, 0.20957994, -0.19022264, 0.08969936, 0.00000000, 0.00000000, 0.00000000, 0.00000000
1, 0.4900, 171, 0.77154934, 0.21121168, -0.19586124, 8.92593861, -45.07588196, 8.53923130, 57.14703369, -3.42005253, -58.78398132, -6.67792988, 84.30758667, -153.47422791, -0.20783634, 0.64220756, 0.19573399, -0.71138018, 0.22351938, -0.19967732, 0.09734590, 0.00000000, 0.00000000, 0.00000000, 0.00000000
1, 0.4925, 172, 0.75679421, 0.22543257, -0.20648888, 7.79236269, -46.96592331, 9.14676762, 57.03010941, -3.94621444, -59.04706192, -6.30097628, 84.19345856, -153.11495972, -0.20806956, 0.64155269, 0.19527182, -0.71202958, 0.23807490, -0.21432912, 0.10593076, 0.00000000, 0.00000000, 0.00000000, 0.00000000
1, 0.4950, 173, 0.74131143, 0.23819773, -0.21872589, 7.30608416, -48.91696930, 9.61148167, 57.03010941, -3.94621444, -59.04706192, -5.92341375, 84.07447052, -152.75376892, -0.20832488, 0.64086652, 0.19480163, -0.71270132, 0.25334543, -0.22754388, 0.11604105, 0.00000000, 0.00000000, 0.00000000, 0.00000000
1, 0.4975, 174, 0.72001159, 0.25056705, -0.23095703, 6.88890934, -50.52225113, 10.15059948, 57.03010941, -3.94621444, -59.04706192, -5.54511166, 83.95136261, -152.39068604, -0.20860098, 0.64015508, 0.19432285, -0.71339041, 0.27442122, -0.24038494, 0.12607674, 0.00000000, 0.00000000, 0.00000000, 0.00000000
1, 0.5000, 175, 0.69955879, 0.26391494, -0.24256396, 6.68727398, -52.12441254, 10.61911297, 57.03010941, -3.94621444, -59.04706192, -5.16796494, 83.82405853, -152.02821350, -0.20889369, 0.63941878, 0.19383311, -0.71409786, 0.29463738, -0.25422442, 0.13541932, 0.00000000, 0.00000000, 0.00000000, 0.00000000
1, 0.5025, 176, 0.67510468, 0.27749172, -0.25428137, 6.70401621, -54.00591278, 11.36288548, 57.03010941, -3.94621444, -59.04706192, -4.78537655, 83.69201660, -151.66020203, -0.20920545, 0.63865560, 0.19332393, -0.71482730, 0.31884098, -0.26832581, 0.14479162, 0.00000000, 0.00000000, 0.00000000, 0.00000000
1, 0.5050, 177, 0.64835942, 0.29028207, -0.26331779, 6.86778688, -56.17290878, 12.73176861, 57.38088226, -4.32622051, -59.74861145, -4.38385582, 83.55462646, -151.27345276, -0.20954505, 0.63786411, 0.19278288, -0.71558022, 0.34531987, -0.28170139, 0.15138951, 0.00000000, 0.00000000, 0.00000000, 0.00000000
1, 0.5075, 178, 0.62037778, 0.30885920, -0.27336287, 7.25098228, -58.75660706, 14.30410194, 57.38088226, -4.32622051, -59.74861145, -3.96000719, 83.41072083, -150.86508179, -0.20991437, 0.63703954, 0.19220182, -0.71636236, 0.37301642, -0.30093440, 0.15888473, 0.00000000, 0.00000000, 0.00000000, 0.00000000
1, 0.5100, 179, 0.59213215, 0.33139959, -0.28554630, 7.49451351, -61.76366425, 16.29079437, 57.38088226, -4.32622051, -59.74861145, -3.50744414, 83.25923920, -150.42831421, -0.21032360, 0.63617629, 0.19157526, -0.71717691, 0.40095532, -0.32421872, 0.16838896, 0.00000000, 0.00000000, 0.00000000, 0.00000000
1, 0.5125, 180, 0.56751472, 0.35641339, -0.29757708, 7.81133604, -64.97446442, 18.06466103, 57.38088226, -4.32622051, -59.74861145, -3.03346729, 83.09967804, -149.97062683, -0.21076913, 0.63527030, 0.19090393, -0.71802765, 0.42524189, -0.35005552, 0.17760240, 0.00000000, 0.00000000, 0.00000000, 0.00000000
1, 0.5150, 181, 0.54530662, 0.38283223, -0.31252405, 8.05108738, -67.56280518, 19.84722137, 57.38088226, -4.32622051, -59.74861145, -2.54165983, 82.93339539, -149.49542236, -0.21124963, 0.63433093, 0.19019186, -0.71890545, 0.44709724, -0.37737677, 0.18962139, 0.00000000, 0.00000000, 0.00000000, 0.00000000
1, 0.5175, 182, 0.52062416, 0.41865036, -0.33220991, 8.21989822, -70.28808594, 21.48827744, 57.17626190, -4.47237635, -59.66091537, -2.03746033, 82.75997925, -149.00799561, -0.21176423, 0.63335472, 0.18944134, -0.71981221, 0.47140270, -0.41416973, 0.20626239, 0.00000000, 0.00000000, 0.00000000, 0.00000000
1, 0.5200, 183, 0.49926400, 0.44132024, -0.35124853, 7.52042580, -72.26642609, 23.56194115, 57.17626190, -4.47237635, -59.66091537, -1.51734066, 82.58119202, -148.50254822, -0.21232872, 0.63235116, 0.18866354, -0.72073203, 0.49236476, -0.43790117, 0.22217228, 0.00000000, 0.00000000, 0.00000000, 0.00000000
1, 0.5225, 184, 0.46768698, 0.47159430, -0.37234929, 6.88785744, -73.62312317, 25.78369331, 57.17626190, -4.47237635, -59.66091537, -0.98088378, 82.39857483, -147.97880554, -0.21294184, 0.63133061, 0.18785822, -0.72165561, 0.52352536, -0.46932992, 0.24008738, 0.00000000, 0.00000000, 0.00000000, 0.00000000
1, 0.5250, 185, 0.43090671, 0.49974772, -0.39298314, 5.96765518, -74.98142242, 27.93642616, 57.17626190, -4.47237635, -59.66091537, -0.43198025, 82.21197510, -147.43997192, -0.21360646, 0.63029134, 0.18703087, -0.72258192, 0.55986941, -0.49872607, 0.25747848, 0.00000000, 0.00000000, 0.00000000, 0.00000000
1, 0.5275, 186, 0.39184952, 0.51748639, -0.41682670, 4.47402477, -76.55168915, 30.01821709, 57.17626190, -4.47237635, -59.66091537, 0.12487991, 82.02083588, -146.88909912, -0.21433015, 0.62922686, 0.18619050, -0.72351176, 0.59846902, -0.51778895, 0.27801335, 0.00000000, 0.00000000, 0.00000000, 0.00000000
1, 0.5300, 187, 0.36105344, 0.53434062, -0.43630159, 2.98293257, -78.27473450, 33.00715637, 56.79625702, -5.40777540, -60.77170181, 0.53320515, 81.80765533, -146.48165894, -0.21501806, 0.62798631, 0.18543957, -0.72457761, 0.62874186, -0.53566682, 0.29381078, 0.00000000, 0.00000000, 0.00000000, 0.00000000
1, 0.5325, 188, 0.32925653, 0.55834353, -0.45737576, 1.92346823, -79.87065125, 36.97555923, 56.79625702, -5.40777540, -60.77170181, 1.15199482, 81.60665894, -145.86119080, -0.21589896, 0.62688118, 0.18452759, -0.72550488, 0.66003281, -0.56127828, 0.31143659, 0.00000000, 0.00000000, 0.00000000, 0.00000000
1, 0.5350, 189, 0.29599240, 0.58735800, -0.47690383, 0.57890916, -81.62091827, 41.78208542, 56.79625702, -5.40777540, -60.77170181, 1.81704628, 81.40001678, -145.19021606, -0.21688053, 0.62575901, 0.18356217, -0.72642517, 0.69276392, -0.59209955, 0.32744253, 0.00000000, 0.00000000, 0.00000000, 0.00000000
1, 0.5375, 190, 0.26392841, 0.61691141, -0.49935883, -0.98285550, -83.10391998, 47.08253098, 56.79625702, -5.40777540, -60.77170181, 2.53124833, 81.18791199, -144.46520996, -0.21797246, 0.62462449, 0.18254136, -0.72733140, 0.72426760, -0.62367713, 0.34631300, 0.00000000, 0.00000000, 0.00000000, 0.00000000
1, 0.5400, 191, 0.23398842, 0.65967339, -0.52491540, -2.83864045, -83.76316833, 52.67486191, 56.79625702, -5.40777540, -60.77170181, 3.29429960, 80.97205353, -143.68563843, -0.21918003, 0.62349015, 0.18146983, -0.72820932, 0.75362343, -0.66869056, 0.36825797, 0.00000000, 0.00000000, 0.00000000, 0.00000000
1, 0.5425, 192, 0.20486519, 0.70583946, -0.55616468, -5.20216656, -83.93693542, 57.92573929, 56.09470749, -6.43086815, -61.50248337, 4.09569979, 80.75334167, -142.86076355, -0.22050282, 0.62235957, 0.18036273, -0.72905165, 0.78214049, -0.71731609, 0.39588901, 0.00000000, 0.00000000, 0.00000000, 0.00000000
1, 0.5450, 193, 0.17814834, 0.75960076, -0.58473653, -8.28739166, -83.77125549, 63.18357849, 56.09470749, -6.43086815, -61.50248337, 4.93059874, 80.53211975, -141.99360657, -0.22194935, 0.62123430, 0.17923318, -0.72985059, 0.80822957, -0.77373898, 0.42084968, 0.00000000, 0.00000000, 0.00000000, 0.00000000
1, 0.5475, 194, 0.13870093, 0.81004333, -0.61748785, -13.31850243, -83.00165558, 68.52590942, 56.09470749, -6.43086815, -61.50248337, 5.79309320, 80.30947113, -141.08514404, -0.22354494, 0.62011445, 0.17811410, -0.73058963, 0.84703052, -0.82703382, 0.45002100, 0.00000000, 0.00000000, 0.00000000, 0.00000000
1, 0.5500, 195, 0.09571756, 0.84055531, -0.64173877, -19.00173950, -81.61495972, 73.87873077, 56.09470749, -6.43086815, -61.50248337, 6.68001270, 80.08660889, -140.13688660, -0.22529604, 0.61900610, 0.17701893, -0.73125750, 0.88935173, -0.86058199, 0.47074726, 0.00000000, 0.00000000, 0.00000000, 0.00000000
1, 0.5525, 196, 0.05483773, 0.86823738, -0.65650594, -23.82383156, -79.82566071, 80.56306458, 56.09470749, -6.43086815, -61.50248337, 7.61053324, 79.86351013, -139.13145447, -0.22721060, 0.61792463, 0.17591810, -0.73184514, 0.92955351, -0.89154577, 0.48206198, 0.00000000, 0.00000000, 0.00000000, 0.00000000
1, 0.5550, 197, 0.00485345, 0.89484042, -0.67615885, -28.42904472, -77.98377228, 88.43638611, 55.39315796, -6.13855600, -61.91172028, 8.59805775, 79.63930511, -138.05567932, -0.22930436, 0.61687583, 0.17479262, -0.73234648, 0.97884154, -0.92172754, 0.49833524, 0.00000000, 0.00000000, 0.00000000, 0.00000000
1, 0.5575, 198, -0.02909766, 0.92017424, -0.68779910, -32.02625656, -76.08633423, 97.77589417, 55.39315796, -6.13855600, -61.91172028, 9.66024590, 79.41270447, -136.89410400, -0.23158680, 0.61587042, 0.17360711, -0.73275632, 1.01207364, -0.95100576, 0.50667065, 0.00000000, 0.00000000, 0.00000000, 0.00000000
1, 0.5600, 199, -0.05296592, 0.93589538, -0.70315081, -34.98064041, -73.44428253, 108.59216309, 55.39315796, -6.13855600, -61.91172028, 10.81379890, 79.18375397, -135.63111877, -0.23406994, 0.61492813, 0.17233542, -0.73305875, 1.03519988, -0.97110379, 0.51882303, 0.00000000, 0.00000000, 0.00000000, 0.00000000
1, 0.5625, 200, -0.07478262, 0.96124279, -0.74634254, -37.43443298, -70.26451111, 120.74292755, 55.39315796, -6.13855600, -61.91172028, 12.07154751, 78.95166016, -134.25480652, -0.23676620, 0.61406422, 0.17095460, -0.73324049, 1.05624866, -1.00132060, 0.55894321, 0.00000000, 0.00000000, 0.00000000, 0.00000000
1, 0.5650, 201, -0.09885821, 0.98167473, -0.78178430, -40.30784225, -68.53837585, 132.59559631, 55.39315796, -6.13855600, -61.91172028, 13.41701031, 78.71140289, -132.78068542, -0.23968157, 0.61325067, 0.16946805, -0.73331922, 1.07951188, -1.02709615, 0.59137577, 0.00000000, 0.00000000, 0.00000000, 0.00000000
1, 0.5675, 202, -0.11656447, 0.99738520, -0.80301428, -44.48378372, -65.91213989, 143.69538879, 55.42238998, -7.13241720, -62.55480957, 14.83246136, 78.46395111, -131.22322083, -0.24281777, 0.61249083, 0.16791148, -0.73328048, 1.09636343, -1.04858005, 0.60969287, 0.00000000, 0.00000000, 0.00000000, 0.00000000
1, 0.5700, 203, -0.15039954, 0.99670261, -0.87835127, -49.46705627, -61.41289902, 154.12382507, 55.42238998, -7.13241720, -62.55480957, 16.30753517, 78.21260071, -129.59078979, -0.24616762, 0.61180657, 0.16631684, -0.73309821, 1.12931180, -1.05406332, 0.68228853, 0.00000000, 0.00000000, 0.00000000, 0.00000000
1, 0.5725, 204, -0.18065931, 0.97724801, -0.92062306, -54.38253403, -56.36458588, 164.90919495, 55.42238998, -7.13241720, -62.55480957, 17.84321594, 77.95681763, -127.88236237, -0.24973352, 0.61120653, 0.16468146, -0.73276174, 1.15864980, -1.04118097, 0.72200990, 0.00000000, 0.00000000, 0.00000000, 0.00000000
1, 0.5750, 205, -0.18065931, 0.97724801, -0.92062306, -54.38253403, -56.36458588, 164.90919495, 55.42238998, -7.13241720, -62.55480957, 19.31044388, 77.69189453, -126.24227905, -0.25329548, 0.61059678, 0.16304348, -0.73241365, 1.15767467, -1.04774022, 0.71944624, 0.00000000, 0.00000000, 0.00000000, 0.00000000
1, 0.5775, 206, -0.21630198, 0.95409244, -0.98102564, -69.05790710, -40.32431412, 202.03309631, 55.42238998, -7.13241720, -62.55480957, 21.12805176, 77.42266846, -124.20417786, -0.25758421, 0.61028266, 0.16123100, -0.73158050, 1.19230485, -1.03258395, 0.77790636, 0.00000000, 0.00000000, 0.00000000, 0.00000000
1, 0.5800, 207, -0.21630198, 0.95409244, -0.98102564, -69.05790710, -40.32431412, 202.03309631, 55.42238998, -7.13241720, -62.55480957, 22.81101990, 77.13473511, -122.29927826, -0.26184028, 0.60987842, 0.15945503, -0.73079556, 1.19119847, -1.04041612, 0.77578104, 0.00000000, 0.00000000, 0.00000000, 0.00000000
1, 0.5825, 208, -0.22705117, 0.92456543, -1.00027406, -82.24786377, -31.40874100, 230.66268921, 54.60391617, -8.85705948, -63.16866302, 24.75107193, 76.83030701, -120.09702301, -0.26671761, 0.60970140, 0.15751557, -0.72959912, 1.20075083, -1.01995540, 0.79336810, 0.00000000, 0.00000000, 0.00000000, 0.00000000
1, 0.5850, 209, -0.23251294, 0.89608985, -0.99666625, -90.66663361, -28.04400635, 245.14350891, 54.60391617, -8.85705948, -63.16866302, 26.72522163, 76.50096130, -117.83525848, -0.27191755, 0.60955983, 0.15553218, -0.72822207, 1.20488667, -1.00106597, 0.78817314, 0.00000000, 0.00000000, 0.00000000, 0.00000000
1, 0.5875, 210, -0.23137040, 0.85032493, -0.99406999, -100.01528931, -25.17815590, 259.97030640, 54.60391617, -8.85705948, -63.16866302, 28.71902275, 76.14283752, -115.52595520, -0.27745813, 0.60943735, 0.15351170, -0.72666180, 1.20226634, -0.96540964, 0.78402960, 0.00000000, 0.00000000, 0.00000000, 0.00000000
1, 0.5900, 211, -0.23163442, 0.78376269, -0.99912089, -109.42340088, -23.77025986, 274.98733521, 54.60391617, -8.85705948, -63.16866302, 30.71314049, 75.75036621, -113.18833923, -0.28334615, 0.60930634, 0.15144317, -0.72493160, 1.20086706, -0.90948021, 0.78749955, 0.00000000, 0.00000000, 0.00000000, 0.00000000
1, 0.5925, 212, -0.21603325, 0.71963412, -1.00587785, -117.52816010, -23.52402306, 289.77450562, 54.60391617, -8.85705948, -63.16866302, 32.68893051, 75.31958008, -110.84446716, -0.28956234, 0.60915095, 0.14930107, -0.72304779, 1.18338776, -0.85650510, 0.79258931, 0.00000000, 0.00000000, 0.00000000, 0.00000000
1, 0.5950, 213, -0.18928608, 0.65473360, -1.01523566, -124.12362671, -23.38787460, 303.64602661, 52.03157043, -11.95556831, -63.95790482, 34.62922287, 74.85008240, -108.51543427, -0.29607031, 0.60897124, 0.14707218, -0.72101754, 1.15453148, -0.80324715, 0.80018818, 0.00000000, 0.00000000, 0.00000000, 0.00000000
1, 0.5975, 214, -0.15755357, 0.58107096, -1.02925897, -129.57676697, -22.52774048, 316.19482422, 52.03157043, -11.95556831, -63.95790482, 36.52023697, 74.34432220, -106.21800995, -0.30282944, 0.60877746, 0.14476003, -0.71883863, 1.12045443, -0.74166435, 0.81239003, 0.00000000, 0.00000000, 0.00000000, 0.00000000
1, 0.6000, 215, -0.12853624, 0.48638293, -1.04396546, -134.53971863, -20.39026642, 327.08074951, 52.03157043, -11.95556831, -63.95790482, 38.35104370, 73.80667877, -103.96441650, -0.30980095, 0.60858357, 0.14238687, -0.71650219, 1.08886230, -0.65942144, 0.82526141, 0.00000000, 0.00000000, 0.00000000, 0.00000000
1, 0.6025, 216, -0.10042094, 0.37118351, -1.06032801, -139.58039856, -17.68637848, 337.13528442, 52.03157043, -11.95556831, -63.95790482, 40.11486053, 73.23927307, -101.76120758, -0.31696907, 0.60839164, 0.13996854, -0.71400213, 1.05793822, -0.55699050, 0.83979118, 0.00000000, 0.00000000, 0.00000000, 0.00000000
1, 0.6050, 217, -0.07966610, 0.23885156, -1.08463633, -145.19108582, -15.60990334, 347.11328125, 52.03157043, -11.95556831, -63.95790482, 41.80410004, 72.64086151, -99.61457825, -0.32433996, 0.60818386, 0.13751037, -0.71134156, 1.03411937, -0.43773460, 0.86222976, 0.00000000, 0.00000000, 0.00000000, 0.00000000
1, 0.6075, 218, -0.05262402, 0.09413595, -1.12649918, -151.28871155, -15.54052258, 356.71597290, 50.33615875, -12.56942368, -64.89330292, 43.40329742, 72.00849915, -97.53923798, -0.33191797, 0.60792059, 0.13501035, -0.70854443, 1.00372624, -0.30637378, 0.90208972, 0.00000000, 0.00000000, 0.00000000, 0.00000000
1, 0.6100, 219, -0.00048918, -0.05846188, -1.17647684, -156.64825439, -17.81521034, 366.07464600, 50.33615875, -12.56942368, -64.89330292, 44.90054321, 71.33899689, -95.54951477, -0.33969399, 0.60756618, 0.13244264, -0.70564181, 0.94791728, -0.16739716, 0.94983220, 0.00000000, 0.00000000, 0.00000000, 0.00000000
1, 0.6125, 220, 0.07834708, -0.20174406, -1.20718157, -160.99282837, -21.24545288, 374.64492798, 50.33615875, -12.56942368, -64.89330292, 46.28982162, 70.63262939, -93.65441132, -0.34764311, 0.60710448, 0.12979254, -0.70265388, 0.86506468, -0.03796878, 0.97802556, 0.00000000, 0.00000000, 0.00000000, 0.00000000
1, 0.6150, 221, 0.18255587, -0.33161598, -1.21304917, -165.70745850, -23.49322510, 382.67297363, 50.33615875, -12.56942368, -64.89330292, 47.57683563, 69.89353180, -91.84700775, -0.35575581, 0.60654598, 0.12708080, -0.69956440, 0.75649971, 0.07785390, 0.98114443, 0.00000000, 0.00000000, 0.00000000, 0.00000000
1, 0.6175, 222, 0.29162589, -0.45630699, -1.20992696, -172.38282776, -23.71828270, 388.63665771, 50.33615875, -12.56942368, -64.89330292, 48.76186752, 69.12998199, -90.12194824, -0.36401835, 0.60589737, 0.12437953, -0.69635391, 0.64276493, 0.18841583, 0.97509074, 0.00000000, 0.00000000, 0.00000000, 0.00000000
1, 0.6200, 223, 0.40060380, -0.58269197, -1.20010972, -180.44641113, -21.88888741, 390.85595703, 47.58842468, -14.99561501, -66.55948639, 49.84192276, 68.35343170, -88.47904205, -0.37238443, 0.60516566, 0.12177509, -0.69301891, 0.52887297, 0.30076832, 0.96221900, 0.00000000, 0.00000000, 0.00000000, 0.00000000
1, 0.6225, 224, 0.49893788, -0.71200734, -1.18652725, -189.82177734, -18.62091827, 388.90267944, 47.58842468, -14.99561501, -66.55948639, 50.81238937, 67.57530975, -86.92019653, -0.38080305, 0.60434824, 0.11935392, -0.68957019, 0.42544386, 0.41633800, 0.94549167, 0.00000000, 0.00000000, 0.00000000, 0.00000000
1, 0.6250, 225, 0.58470905, -0.84398222, -1.16293967, -199.56776428, -14.60790253, 383.39370728, 47.58842468, -14.99561501, -66.55948639, 51.67252350, 66.80500031, -85.44589233, -0.38922277, 0.60344195, 0.11717467, -0.68602741, 0.33446056, 0.53500569, 0.91868401, 0.00000000, 0.00000000, 0.00000000, 0.00000000
1, 0.6275, 226, 0.65858412, -0.96479845, -1.13255823, -209.38981628, -10.48897362, 375.50848389, 47.58842468, -14.99561501, -66.55948639, 52.42482758, 66.04858398, -84.05400085, -0.39760888, 0.60244030, 0.11527083, -0.68241155, 0.25530571, 0.64305151, 0.88500160, 0.00000000, 0.00000000, 0.00000000, 0.00000000
1, 0.6300, 227, 0.67825806, -1.09015810, -1.11154461, -218.47596741, -8.50200367, 367.10238647, 47.58842468, -14.99561501, -66.55948639, 53.06832504, 65.30132294, -82.74759674, -0.40597275, 0.60129929, 0.11360032, -0.67876381, 0.23025960, 0.75615144, 0.86047626, 0.00000000, 0.00000000, 0.00000000, 0.00000000
1, 0.6325, 228, 0.80710500, -1.14420342, -1.02978599, -224.84463501, -4.82562113, 358.57043457, 44.19760132, -17.65565681, -68.05027771, 53.62984848, 64.57491302, -81.50723267, -0.41422647, 0.60009950, 0.11217854, -0.67506528, 0.09604225, 0.79850519, 0.77519298, 0.00000000, 0.00000000, 0.00000000, 0.00000000
1, 0.6350, 229, 0.84174031, -1.21650267, -1.00909030, -230.59793091, 1.65044439, 344.12954712, 44.19760132, -17.65565681, -68.05027771, 54.11092377, 63.88244629, -80.33287811, -0.42229238, 0.59885764, 0.11107969, -0.67134196, 0.05615228, 0.85986149, 0.75102866, 0.00000000, 0.00000000, 0.00000000, 0.00000000
1, 0.6725, 230, 1.12788439, -2.09505343, -0.21430132, -164.53587341, 95.04717255, 231.03781128, 36.59748459, -22.39111328, -71.90879822, 58.61000443, 56.23431015, -65.87485504, -0.52007097, 0.58575791, 0.11018605, -0.61177856, -0.29656720, 1.62060153, -0.07519220, 0.00000000, 0.00000000, 0.00000000, 0.00000000
1, 0.6750, 231, 1.12788439, -2.09505343, -0.21430132, -164.53587341, 95.04717255, 231.03781128, 36.59748459, -22.39111328, -71.90879822, 58.94518280, 55.86354065, -64.97491455, -0.52501768, 0.58570254, 0.11050569, -0.60753405, -0.30018121, 1.61431754, -0.07518087, 0.00000000, 0.00000000, 0.00000000, 0.00000000
1, 0.6775, 232, 1.19167304, -1.49660766, -0.21797885, -135.79168701, 100.97255707, 258.79043579, 36.59748459, -22.39111328, -71.90879822, 59.40794754, 55.43727493, -64.00322723, -0.52992743, 0.58609599, 0.11015273, -0.60293853, -0.36816758, 1.00826168, -0.07073693, 0.00000000, 0.00000000, 0.00000000, 0.00000000
1, 0.6800, 233, 1.19167304, -1.49660766, -0.21797885, -135.79168701, 100.97255707, 258.79043579, 36.59748459, -22.39111328, -71.90879822, 59.85580444, 55.00543213, -63.04572678, -0.53481728, 0.58647096, 0.10978340, -0.59830582, -0.37246680, 1.00066614, -0.07001998, 0.00000000, 0.00000000, 0.00000000, 0.00000000
1, 0.6825, 234, 1.22607422, -1.47914517, -0.20715077, -118.11743927, 109.67247009, 200.45063782, 34.98976898, -23.53113174, -72.46418762, 60.25337982, 54.70805740, -62.19842148, -0.53867388, 0.58699524, 0.11003838, -0.59427148, -0.40985554, 0.97753251, -0.07950549, 0.00000000, 0.00000000, 0.00000000, 0.00000000
1, 0.6850, 235, 1.18653691, -1.57169855, -0.23866948, -120.40396118, 113.35298157, 180.85485840, 34.98976898, -23.53113174, -72.46418762, 60.61267853, 54.45463943, -61.38816833, -0.54228073, 0.58747560, 0.11061389, -0.59039694, -0.37288159, 1.06515729, -0.04660448, 0.00000000, 0.00000000, 0.00000000, 0.00000000
1, 0.6875, 236, 1.14286375, -1.60981750, -0.21777906, -121.75581360, 110.22225952, 172.14424133, 34.98976898, -23.53113174, -72.46418762, 60.93615341, 54.21357727, -60.61534119, -0.54578525, 0.58786243, 0.11127836, -0.58664596, -0.33166158, 1.09868658, -0.06629083, 0.00000000, 0.00000000, 0.00000000, 0.00000000
1, 0.6900, 237, 1.12457967, -1.66307187, -0.16173509, -118.98413086, 104.89669800, 168.91567993, 34.98976898, -23.53113174, -72.46418762, 61.23770142, 53.97072983, -59.87581635, -0.54921138, 0.58819073, 0.11188240, -0.58299297, -0.31586325, 1.14744306, -0.12129289, 0.00000000, 0.00000000, 0.00000000, 0.00000000
1, 0.6925, 238, 1.13353300, -1.65933633, -0.12760313, -113.47029877, 98.72731781, 168.11459351, 34.98976898, -23.53113174, -72.46418762, 61.52605820, 53.71999741, -59.16734695, -0.55255806, 0.58849013, 0.11234991, -0.57942778, -0.32739836, 1.13918376, -0.15451066, 0.00000000, 0.00000000, 0.00000000, 0.00000000
1, 0.6950, 239, 1.16976440, -1.63234293, -0.10343558, -108.38108063, 91.47250366, 165.62159729, 33.44051361, -23.26804924, -73.16574097, 61.79454422, 53.46412659, -58.49708557, -0.55581266, 0.58873922, 0.11269501, -0.57598466, -0.36628026, 1.10770679, -0.17793646, 0.00000000, 0.00000000, 0.00000000, 0.00000000
1, 0.6975, 240, 1.20259082, -1.61259055, -0.08988091, -105.53511047, 85.42661285, 159.79524231, 33.44051361, -23.26804924, -73.16574097, 62.03650665, 53.21221924, -57.86655045, -0.55896032, 0.58891964, 0.11300340, -0.57268423, -0.40173191, 1.08365560, -0.19092688, 0.00000000, 0.00000000, 0.00000000, 0.00000000
1, 0.7000, 241, 1.22162151, -1.60341394, -0.08061458, -105.94285583, 81.19244385, 151.34635925, 33.44051361, -23.26804924, -73.16574097, 62.24602127, 52.97254181, -57.27330017, -0.56200683, 0.58900958, 0.11337154, -0.56952876, -0.42327470, 1.07049584, -0.19981466, 0.00000000, 0.00000000, 0.00000000, 0.00000000
1, 0.7025, 242, 1.22176373, -1.59792626, -0.06879991, -109.08772278, 77.56028748, 142.63481140, 33.44051361, -23.26804924, -73.16574097, 62.41864014, 52.74676514, -56.71463776, -0.56498396, 0.58898318, 0.11384404, -0.56650829, -0.42579603, 1.06138134, -0.21147689, 0.00000000, 0.00000000, 0.00000000, 0.00000000
1, 0.7050, 243, 1.20541000, -1.59101784, -0.05851827, -112.44060516, 73.15132141, 134.75268555, 33.44051361, -23.26804924, -73.16574097, 62.55382919, 52.53247070, -56.19089508, -0.56790763, 0.58883089, 0.11440287, -0.56362319, -0.41171199, 1.05117500, -0.22186205, 0.00000000, 0.00000000, 0.00000000, 0.00000000
1, 0.7075, 244, 1.18712604, -1.57991755, -0.04108104, -114.63384247, 67.64200592, 127.06169128, 32.44665146, -23.20958710, -74.01344299, 62.65243149, 52.32826233, -55.70493317, -0.57076925, 0.58855468, 0.11501731, -0.56088930, -0.39560133, 1.03708363, -0.23966774, 0.00000000, 0.00000000, 0.00000000, 0.00000000
1, 0.7100, 245, 1.17026055, -1.56042457, -0.02547341, -116.02879333, 61.42901230, 120.54750824, 32.44665146, -23.20958710, -74.01344299, 62.71693039, 52.13095474, -55.25637817, -0.57357574, 0.58815962, 0.11565332, -0.55830413, -0.38084489, 1.01485586, -0.25591174, 0.00000000, 0.00000000, 0.00000000, 0.00000000
1, 0.7125, 246, 1.15399015, -1.53676558, -0.00870343, -116.99316406, 55.48053741, 115.08460999, 32.44665146, -23.20958710, -74.01344299, 62.75136185, 51.93875885, -54.84171295, -0.57633460, 0.58765757, 0.11629502, -0.55585295, -0.36663806, 0.98867667, -0.27356470, 0.00000000, 0.00000000, 0.00000000, 0.00000000
1, 0.7150, 247, 1.14244664, -1.51029599, 0.01078824, -117.31155396, 49.67438126, 109.76141357, 32.44665146, -23.20958710, -74.01344299, 62.75850296, 51.75165176, -54.45965958, -0.57903975, 0.58705944, 0.11693422, -0.55353463, -0.35711205, 0.95988882, -0.29416347, 0.00000000, 0.00000000, 0.00000000, 0.00000000
1, 0.7175, 248, 1.12983394, -1.48767424, 0.03254494, -117.34732056, 44.55449295, 105.00611877, 32.44665146, -23.20958710, -74.01344299, 62.74232483, 51.56927109, -54.10626984, -0.58169341, 0.58637923, 0.11756856, -0.55133468, -0.34647399, 0.93512791, -0.31721914, 0.00000000, 0.00000000, 0.00000000, 0.00000000
1, 0.7200, 249, 1.11649978, -1.46641350, 0.05464887, -116.81137848, 39.98069382, 101.09563446, 32.24203491, -23.32651329, -74.97807312, 62.70738602, 51.39043808, -53.77766800, -0.58429766, 0.58563340, 0.11818697, -0.54923731, -0.33508360, 0.91187048, -0.34077960, 0.00000000, 0.00000000, 0.00000000, 0.00000000
1, 0.7225, 250, 1.10416341, -1.45131969, 0.07848932, -115.49179840, 36.30997467, 97.47461700, 32.24203491, -23.32651329, -74.97807312, 62.65893936, 51.21558380, -53.46978378, -0.58684427, 0.58484423, 0.11878764, -0.54722989, -0.32465518, 0.89490300, -0.36618280, 0.00000000, 0.00000000, 0.00000000, 0.00000000
1, 0.7250, 251, 1.09681082, -1.43734872, 0.10511290, -113.60681915, 33.75682831, 93.58712769, 32.24203491, -23.32651329, -74.97807312, 62.60134888, 51.04660416, -53.17896652, -0.58932042, 0.58403206, 0.11938140, -0.54530364, -0.31915343, 0.87918293, -0.39442217, 0.00000000, 0.00000000, 0.00000000, 0.00000000
1, 0.7275, 252, 1.08973169, -1.43016648, 0.13370934, -111.01078796, 32.17641830, 89.92032623, 32.24203491, -23.32651329, -74.97807312, 62.53961182, 50.88413239, -52.90117264, -0.59171778, 0.58321881, 0.11996941, -0.54344565, -0.31386018, 0.87035829, -0.42463562, 0.00000000, 0.00000000, 0.00000000, 0.00000000
1, 0.7300, 253, 1.08329105, -1.43026066, 0.16414826, -107.41187286, 31.02083778, 86.25600433, 32.24203491, -23.32651329, -74.97807312, 62.48382187, 50.72748566, -52.63018036, -0.59401846, 0.58244932, 0.12053093, -0.54163384, -0.30914730, 0.86885661, -0.45659846, 0.00000000, 0.00000000, 0.00000000, 0.00000000
1, 0.7325, 254, 1.07832539, -1.43333793, 0.19734903, -103.02581787, 30.28916931, 82.52493286, 32.24203491, -23.32651329, -75.91347504, 62.42452240, 50.57957458, -52.37379074, -0.59622055, 0.58168656, 0.12109169, -0.53990620, -0.30581838, 0.87046754, -0.49130440, 0.00000000, 0.00000000, 0.00000000, 0.00000000
1, 0.7350, 255, 1.07224309, -1.43280375, 0.22694142, -97.63677216, 29.98122215, 78.86624908, 31.18971062, -22.71265602, -75.91347504, 62.37190247, 50.43956757, -52.12569427, -0.59830695, 0.58097577, 0.12163041, -0.53823978, -0.30129004, 0.86853278, -0.52228785, 0.00000000, 0.00000000, 0.00000000, 0.00000000
1, 0.7375, 256, 1.07099855, -1.43389845, 0.25161114, -90.73612976, 29.41263008, 75.05921936, 31.18971062, -22.71265602, -75.91347504, 62.32888412, 50.30747223, -51.88702393, -0.60025823, 0.58033389, 0.12212800, -0.53664452, -0.30151588, 0.86827672, -0.54820573, 0.00000000, 0.00000000, 0.00000000, 0.00000000
1, 0.7400, 257, 1.07313430, -1.43794918, 0.26914117, -82.97289276, 28.85208893, 71.24948120, 31.18971062, -22.71265602, -75.91347504, 62.29773331, 50.18326569, -51.65773392, -0.60206425, 0.57977319, 0.12257482, -0.53512347, -0.30503798, 0.87101305, -0.56681812, 0.00000000, 0.00000000, 0.00000000, 0.00000000
1, 0.7425, 258, 1.07740450, -1.44179690, 0.27310604, -74.34173584, 27.73801994, 67.91896820, 31.18971062, -22.71265602, -75.91347504, 62.27988052, 50.06518936, -51.43881607, -0.60372174, 0.57930064, 0.12294766, -0.53368032, -0.31062943, 0.87355363, -0.57169533, 0.00000000, 0.00000000, 0.00000000, 0.00000000
1, 0.7450, 259, 1.08429587, -1.44266105, 0.26696885, -65.56609344, 26.49121094, 64.30644226, 31.18971062, -22.71265602, -75.91347504, 62.27501678, 49.95368576, -51.23122406, -0.60522676, 0.57891679, 0.12324699, -0.53232151, -0.31877142, 0.87312335, -0.56629997, 0.00000000, 0.00000000, 0.00000000, 0.00000000
1, 0.7475, 260, 1.09225357, -1.44220769, 0.25498411, -57.08122253, 25.52855110, 60.06924438, 30.10815430, -22.77112007, -76.43963623, 62.28237915, 49.85044098, -51.03505325, -0.60657555, 0.57862008, 0.12348808, -0.53105152, -0.32788986, 0.87141144, -0.55488330, 0.00000000, 0.00000000, 0.00000000, 0.00000000
1, 0.7500, 261, 1.09982634, -1.43803585, 0.24073538, -49.60748672, 25.04884911, 55.35232925, 30.10815430, -22.77112007, -76.43963623, 62.30012894, 49.75705338, -50.84945679, -0.60777467, 0.57840210, 0.12369537, -0.52986836, -0.33651459, 0.86604428, -0.54103649, 0.00000000, 0.00000000, 0.00000000, 0.00000000
1, 0.7525, 262, 1.10072410, -1.43495262, 0.22306211, -42.78247070, 24.70816422, 50.21977615, 30.10815430, -22.77112007, -76.43963623, 62.32654190, 49.67457581, -50.67463303, -0.60882765, 0.57825530, 0.12388369, -0.52877456, -0.33834302, 0.86185008, -0.52360934, 0.00000000, 0.00000000, 0.00000000, 0.00000000
1, 0.7550, 263, 1.09225786, -1.42500544, 0.20380232, -37.03784180, 24.56951523, 44.81373215, 30.10815430, -22.77112007, -76.43963623, 62.35914230, 49.60385895, -50.51033020, -0.60974485, 0.57816732, 0.12407184, -0.52776879, -0.33067614, 0.85089880, -0.50445974, 0.00000000, 0.00000000, 0.00000000, 0.00000000
1, 0.7575, 264, 1.08098972, -1.40701842, 0.18882608, -31.93732834, 24.01599121, 38.98452377, 30.10815430, -22.77112007, -76.43963623, 62.39479065, 49.54533768, -50.35861969, -0.61053115, 0.57812411, 0.12426723, -0.52686054, -0.32007039, 0.83203620, -0.48948666, 0.00000000, 0.00000000, 0.00000000, 0.00000000
1, 0.7600, 265, 1.06801224, -1.38378000, 0.17576669, -27.41495895, 23.80548096, 33.02197647, 30.51739311, -22.21572685, -76.76117706, 62.43286133, 49.49973679, -50.21846771, -0.61119157, 0.57812178, 0.12448286, -0.52604580, -0.30760944, 0.80806106, -0.47632521, 0.00000000, 0.00000000, 0.00000000, 0.00000000
1, 0.7625, 266, 1.04896963, -1.35825026, 0.16385460, -24.11304092, 23.50443077, 27.69165802, 30.51739311, -22.21572685, -76.76117706, 62.47101593, 49.46552658, -50.08899307, -0.61174935, 0.57814497, 0.12472368, -0.52531439, -0.28895473, 0.78192902, -0.46423942, 0.00000000, 0.00000000, 0.00000000, 0.00000000
1, 0.7650, 267, 1.02471864, -1.32961178, 0.15639986, -20.95042419, 22.71297646, 22.63489914, 30.51739311, -22.21572685, -76.76117706, 62.50806046, 49.44157791, -49.97131729, -0.61221093, 0.57818705, 0.12498137, -0.52466863, -0.26497549, 0.75281453, -0.45655864, 0.00000000, 0.00000000, 0.00000000, 0.00000000
1, 0.7675, 268, 0.96742713, -1.29490817, 0.13529731, -18.14625740, 21.90828323, 18.20859528, 30.51739311, -22.21572685, -76.76117706, 62.54399490, 49.42644882, -49.86429977, -0.61258841, 0.57824498, 0.12525198, -0.52409947, -0.20785576, 0.71774501, -0.43518686, 0.00000000, 0.00000000, 0.00000000, 0.00000000
1, 0.7700, 269, 0.94126940, -1.23793268, 0.13157962, -15.48160458, 20.61538506, 13.91601181, 30.51739311, -22.21572685, -76.76117706, 62.57742310, 49.41932678, -49.76932907, -0.61288631, 0.57831168, 0.12552890, -0.52361095, -0.18177879, 0.66051066, -0.43117577, 0.00000000, 0.00000000, 0.00000000, 0.00000000
1, 0.7725, 270, 0.94126940, -1.23793268, 0.13157962, -15.48160458, 20.61538506, 13.91601181, 30.69277954, -23.85267448, -77.63811493, 62.61082077, 49.41216660, -49.67438126, -0.61318403, 0.57837814, 0.12580580, -0.52312225, -0.18186024, 0.66025186, -0.43088281, 0.00000000, 0.00000000, 0.00000000, 0.00000000
1, 0.7750, 271, 0.89268589, -1.17900026, 0.12989299, -8.26227093, 15.36106205, 4.37925339, 30.69277954, -23.85267448, -77.63811493, 62.63585663, 49.42008972, -49.61422348, -0.61329609, 0.57845491, 0.12605031, -0.52284712, -0.13318664, 0.60128206, -0.42889541, 0.00000000, 0.00000000, 0.00000000, 0.00000000
1, 0.7775, 272, 0.89268589, -1.17900026, 0.12989299, -8.26227093, 15.36106205, 4.37925339, 30.69277954, -23.85267448, -77.63811493, 62.66090775, 49.42802429, -49.55405045, -0.61340803, 0.57853162, 0.12629482, -0.52257192, -0.13309658, 0.60124463, -0.42859459, 0.00000000, 0.00000000, 0.00000000, 0.00000000
1, 0.7800, 273, 0.84459221, -1.11475444, 0.13512972, -3.85720801, 12.21816063, -0.15392898, 30.69277954, -23.85267448, -77.63811493, 62.71618271, 49.43700027, -49.48877716, -0.61338550, 0.57876557, 0.12643480, -0.52230543, -0.08490098, 0.53681690, -0.43321908, 0.00000000, 0.00000000, 0.00000000, 0.00000000
1, 0.7825, 274, 0.81311578, -1.08949316, 0.13802487, -2.12796211, 11.36934090, -2.40917420, 30.69277954, -23.85267448, -77.63811493, 62.73717499, 49.45538330, -49.45415878, -0.61335349, 0.57885998, 0.12664160, -0.52218819, -0.05321598, 0.51166308, -0.43579087, 0.00000000, 0.00000000, 0.00000000, 0.00000000
1, 0.7850, 275, 0.77835798, -1.06324291, 0.13947551, -0.17944275, 10.16865730, -4.18032646, 30.07892418, -23.09266281, -77.14118958, 62.75755692, 49.47631454, -49.42675018, -0.61328006, 0.57896191, 0.12683250, -0.52211523, -0.01822073, 0.48555386, -0.43690896, 0.00000000, 0.00000000, 0.00000000, 0.00000000
1, 0.7875, 276, 0.74372178, -1.03759980, 0.14042778, 1.98903394, 8.54577351, -5.39840221, 30.07892418, -23.09266281, -77.14118958, 62.77752686, 49.49809647, -49.40701675, -0.61316973, 0.57907087, 0.12699237, -0.52208501, 0.01666242, 0.46006399, -0.43752754, 0.00000000, 0.00000000, 0.00000000, 0.00000000
1, 0.7900, 277, 0.71175021, -1.00975442, 0.14299691, 4.44847202, 6.70028782, -5.50140619, 30.07892418, -23.09266281, -77.14118958, 62.79872131, 49.51798248, -49.39376450, -0.61303234, 0.57919139, 0.12710084, -0.52208626, 0.04885934, 0.43234354, -0.43976235, 0.00000000, 0.00000000, 0.00000000, 0.00000000
1, 0.7925, 278, 0.68633807, -0.98363054, 0.14772579, 6.98070669, 4.90933132, -4.62474680, 30.07892418, -23.09266281, -77.14118958, 62.82277679, 49.53386688, -49.38509369, -0.61287785, 0.57932782, 0.12714542, -0.52210546, 0.07445145, 0.40628284, -0.44415241, 0.00000000, 0.00000000, 0.00000000, 0.00000000
1, 0.7950, 279, 0.66373414, -0.96133167, 0.15434553, 9.72875500, 3.18193698, -3.25835133, 30.07892418, -23.09266281, -77.14118958, 62.85102463, 49.54476166, -49.37991714, -0.61270893, 0.57948506, 0.12711833, -0.52213579, 0.09717876, 0.38396639, -0.45042151, 0.00000000, 0.00000000, 0.00000000, 0.00000000
1, 0.7975, 280, 0.65046322, -0.94019747, 0.15946196, 12.90527058, 1.86740565, -1.46811664, 29.99123001, -22.94650650, -77.28733826, 62.88619995, 49.55015182, -49.37609863, -0.61252385, 0.57967478, 0.12701486, -0.52216762, 0.11051074, 0.36271441, -0.45515090, 0.00000000, 0.00000000, 0.00000000, 0.00000000
1, 0.8000, 281, 0.64266086, -0.92260754, 0.16487952, 16.29004288, 1.45387876, 0.40359500, 29.99123001, -22.94650650, -77.28733826, 62.93125916, 49.55090714, -49.37039566, -0.61231834, 0.57991010, 0.12684359, -0.52218890, 0.11832166, 0.34490103, -0.46010947, 0.00000000, 0.00000000, 0.00000000, 0.00000000
1, 0.8025, 282, 0.63692027, -0.91022187, 0.16520308, 20.02967262, 1.66025567, 2.70219326, 29.99123001, -22.94650650, -77.28733826, 62.98926926, 49.54677582, -49.35996628, -0.61209106, 0.58020395, 0.12660338, -0.52218717, 0.12401545, 0.33216792, -0.45987296, 0.00000000, 0.00000000, 0.00000000, 0.00000000
1, 0.8050, 283, 0.63363445, -0.90606517, 0.16576225, 23.69237900, 2.42425609, 4.72884417, 29.99123001, -22.94650650, -77.28733826, 63.06110764, 49.53898239, -49.34338379, -0.61183834, 0.58056092, 0.12630597, -0.52215874, 0.12721303, 0.32754993, -0.45975411, 0.00000000, 0.00000000, 0.00000000, 0.00000000
1, 0.8075, 284, 0.62841183, -0.90544194, 0.16346072, 27.20876312, 3.52980590, 6.97042465, 29.99123001, -22.94650650, -77.28733826, 63.14759827, 49.52743530, -49.31911469, -0.61156327, 0.58098340, 0.12595481, -0.52209586, 0.13230488, 0.32634670, -0.45664811, 0.00000000, 0.00000000, 0.00000000, 0.00000000
1, 0.8100, 285, 0.62759620, -0.91369653, 0.16443580, 30.79800797, 4.43600416, 8.71948242, 31.07278633, -22.42034531, -76.73194885, 63.24771881, 49.51298141, -49.28872681, -0.61125988, 0.58146870, 0.12555264, -0.52200782, 0.13295671, 0.33391857, -0.45669737, 0.00000000, 0.00000000, 0.00000000, 0.00000000
1, 0.8125, 286, 0.62593985, -0.92440981, 0.16513057, 34.24663544, 4.92872953, 10.25357342, 31.07278633, -22.42034531, -76.73194885, 63.35970306, 49.49562073, -49.25403595, -0.61092848, 0.58200943, 0.12509823, -0.52190220, 0.13441628, 0.34385562, -0.45636153, 0.00000000, 0.00000000, 0.00000000, 0.00000000
1, 0.8150, 287, 0.62428647, -0.93561989, 0.16618431, 37.76876068, 5.21551228, 11.71469212, 31.07278633, -22.42034531, -76.73194885, 63.48311234, 49.47526169, -49.21592331, -0.61056781, 0.58260399, 0.12458891, -0.52178276, 0.13583884, 0.35419822, -0.45628488, 0.00000000, 0.00000000, 0.00000000, 0.00000000
1, 0.8175, 288, 0.62396908, -0.94586474, 0.16896085, 41.58296967, 4.88843393, 12.74689198, 31.07278633, -22.42034531, -76.73194885, 63.61646652, 49.45218277, -49.17725372, -0.61017078, 0.58324790, 0.12401859, -0.52166361, 0.13589442, 0.36349505, -0.45784342, 0.00000000, 0.00000000, 0.00000000, 0.00000000
1, 0.8200, 289, 0.62522578, -0.95585304, 0.17149371, 45.11095047, 4.35535049, 13.49747276, 31.07278633, -22.42034531, -76.73194885, 63.75812531, 49.42675781, -49.13923645, -0.60973829, 0.58393425, 0.12339136, -0.52155030, 0.13434920, 0.37246865, -0.45908463, 0.00000000, 0.00000000, 0.00000000, 0.00000000
1, 0.8225, 290, 0.62526101, -0.96835339, 0.16873613, 48.57228470, 3.13471293, 13.88924789, 31.04355431, -22.44957542, -75.91347504, 63.90562820, 49.39905930, -49.10489273, -0.60926872, 0.58465302, 0.12270337, -0.52145606, 0.13399944, 0.38390076, -0.45498577, 0.00000000, 0.00000000, 0.00000000, 0.00000000
1, 0.8250, 291, 0.62635010, -0.97367132, 0.16266482, 51.89184952, 1.63907802, 14.06793594, 31.04355431, -22.44957542, -75.91347504, 64.05764008, 49.36924744, -49.07554626, -0.60876203, 0.58539867, 0.12195528, -0.52138674, 0.13257164, 0.38810611, -0.44753546, 0.00000000, 0.00000000, 0.00000000, 0.00000000
1, 0.8275, 292, 0.62778962, -0.97844887, 0.15330173, 54.71231461, -0.40966502, 13.89105606, 31.04355431, -22.44957542, -75.91347504, 64.21099091, 49.33754730, -49.05369949, -0.60822189, 0.58615714, 0.12114998, -0.52135265, 0.13077170, 0.39174533, -0.43678671, 0.00000000, 0.00000000, 0.00000000, 0.00000000
1, 0.8300, 293, 0.62452263, -0.98575711, 0.14745325, 56.45475769, -2.59706855, 13.08635902, 31.04355431, -22.44957542, -75.91347504, 64.40557861, 49.29412842, -49.00949097, -0.60762465, 0.58709848, 0.12019101, -0.52121180, 0.13354465, 0.39757609, -0.42919222, 0.00000000, 0.00000000, 0.00000000, 0.00000000
1, 0.8325, 294, 0.62804359, -0.99606127, 0.13836788, 56.97608948, -4.99481010, 11.72327995, 31.04355431, -22.44957542, -75.91347504, 64.54959869, 49.26230240, -49.00740814, -0.60704082, 0.58782727, 0.11932666, -0.52126938, 0.12966132, 0.40679365, -0.41880846, 0.00000000, 0.00000000, 0.00000000, 0.00000000
1, 0.8350, 295, 0.63057339, -0.99743921, 0.13235392, 57.14093781, -7.80584383, 10.00606060, 30.86816597, -22.91727448, -76.00116730, 64.68443298, 49.23133850, -49.01799393, -0.60644168, 0.58852082, 0.11844504, -0.52138531, 0.12677875, 0.40714329, -0.41158217, 0.00000000, 0.00000000, 0.00000000, 0.00000000
1, 0.8375, 296, 0.62667656, -0.99895954, 0.12561776, 56.87334061, -10.48242950, 8.29207802, 30.86816597, -22.91727448, -76.00116730, 64.80939484, 49.20140457, -49.04073715, -0.60583234, 0.58917499, 0.11755286, -0.52155674, 0.13033435, 0.40769821, -0.40372628, 0.00000000, 0.00000000, 0.00000000, 0.00000000
1, 0.8400, 297, 0.61709100, -1.00453830, 0.11712039, 56.17493057, -13.23118305, 6.50858641, 30.86816597, -22.91727448, -76.00116730, 64.92315674, 49.17263031, -49.07597733, -0.60521775, 0.58978307, 0.11665501, -0.52178437, 0.13959152, 0.41238141, -0.39421538, 0.00000000, 0.00000000, 0.00000000, 0.00000000
1, 0.8425, 298, 0.60482681, -1.00681078, 0.10867908, 55.40935898, -16.53560829, 4.78771830, 30.86816597, -22.91727448, -76.00116730, 65.02420044, 49.14428329, -49.12552261, -0.60460097, 0.59033817, 0.11574423, -0.52207458, 0.15153232, 0.41382718, -0.38488749, 0.00000000, 0.00000000, 0.00000000, 0.00000000
1, 0.8450, 299, 0.59219712, -1.00665450, 0.10223088, 54.71902084, -20.25368500, 2.99105525, 30.86816597, -22.91727448, -76.00116730, 65.11157990, 49.11615753, -49.19087219, -0.60398096, 0.59083635, 0.11481522, -0.52243376, 0.16384080, 0.41291362, -0.37769085, 0.00000000, 0.00000000, 0.00000000, 0.00000000
1, 0.8475, 300, 0.57992679, -1.00357103, 0.09753751, 54.17701340, -24.46057892, 1.53697944, 29.84507370, -22.88804436, -75.27038574, 65.18483734, 49.08697510, -49.27315903, -0.60336083, 0.59127480, 0.11385549, -0.52286404, 0.17577761, 0.40912884, -0.37239960, 0.00000000, 0.00000000, 0.00000000, 0.00000000
1, 0.8500, 301, 0.57021433, -1.00088966, 0.09600988, 53.63521957, -28.66966820, 0.22275327, 29.84507370, -22.88804436, -75.27038574, 65.24414062, 49.05643845, -49.37213898, -0.60274220, 0.59165382, 0.11286331, -0.52336377, 0.18514094, 0.40579748, -0.37042531, 0.00000000, 0.00000000, 0.00000000, 0.00000000
1, 0.8525, 302, 0.56084436, -0.99339575, 0.09333325, 53.23671341, -32.80928040, -1.02105892, 29.84507370, -22.88804436, -75.27038574, 65.29018402, 49.02444458, -49.48741531, -0.60212344, 0.59197617, 0.11183708, -0.52393126, 0.19414485, 0.39770013, -0.36744657, 0.00000000, 0.00000000, 0.00000000, 0.00000000
1, 0.8550, 303, 0.54903758, -0.98586267, 0.08711849, 52.54549789, -36.32843399, -2.25550103, 29.84507370, -22.88804436, -75.27038574, 65.32389069, 48.99162674, -49.61680603, -0.60150707, 0.59224516, 0.11078827, -0.52455783, 0.20557594, 0.38961309, -0.36106181, 0.00000000, 0.00000000, 0.00000000, 0.00000000
1, 0.8575, 304, 0.53421742, -0.98277378, 0.08120845, 51.56412888, -39.57002640, -3.69505119, 29.84507370, -22.88804436, -75.27038574, 65.34504700, 48.95874405, -49.75963593, -0.60089356, 0.59245944, 0.10972652, -0.52524167, 0.22001940, 0.38602948, -0.35511231, 0.00000000, 0.00000000, 0.00000000, 0.00000000
1, 0.8600, 305, 0.51756173, -0.97744274, 0.07264817, 50.29439545, -42.67913055, -4.92204189, 29.87430573, -23.50189972, -74.27652740, 65.35355377, 48.92541504, -49.91510391, -0.60028869, 0.59261733, 0.10865421, -0.52597779, 0.23629308, 0.38025945, -0.34664625, 0.00000000, 0.00000000, 0.00000000, 0.00000000
1, 0.8625, 306, 0.49971142, -0.97255200, 0.06872708, 49.09686661, -45.79085541, -5.93948412, 29.87430573, -23.50189972, -74.27652740, 65.34988403, 48.89117050, -50.08282852, -0.59969360, 0.59272009, 0.10756779, -0.52676338, 0.25375047, 0.37497663, -0.34295118, 0.00000000, 0.00000000, 0.00000000, 0.00000000
1, 0.8650, 307, 0.48342213, -0.96274799, 0.06561119, 48.18473053, -48.56139755, -6.46365213, 29.87430573, -23.50189972, -74.27652740, 65.33628082, 48.85520554, -50.26081848, -0.59910953, 0.59277666, 0.10646217, -0.52758837, 0.26962695, 0.36480820, -0.34017459, 0.00000000, 0.00000000, 0.00000000, 0.00000000
1, 0.8675, 308, 0.44773072, -0.95070261, 0.06281375, 47.70246887, -51.12349319, -6.77657795, 29.87430573, -23.50189972, -74.27652740, 65.31462097, 48.81724930, -50.44800568, -0.59853262, 0.59279531, 0.10533241, -0.52844822, 0.30488229, 0.35241342, -0.33781138, 0.00000000, 0.00000000, 0.00000000, 0.00000000
1, 0.8700, 309, 0.43303663, -0.94290817, 0.06320757, 47.65226364, -53.56286240, -5.83033037, 29.87430573, -23.50189972, -74.27652740, 65.28784943, 48.77454376, -50.64192200, -0.59797150, 0.59278589, 0.10415889, -0.52932590, 0.31908536, 0.34423804, -0.33871919, 0.00000000, 0.00000000, 0.00000000, 0.00000000
1, 0.8725, 310, 0.43303663, -0.94290817, 0.06320757, 47.65226364, -53.56286240, -5.83033037, 29.87430573, -23.50189972, -74.27652740, 65.26132202, 48.73176575, -50.83564758, -0.59740889, 0.59277505, 0.10298511, -0.53020227, 0.31859314, 0.34385586, -0.33923122, 0.00000000, 0.00000000, 0.00000000, 0.00000000
1, 0.8750, 311, 0.39373970, -0.93488228, 0.06524388, 50.16213608, -61.05503464, -3.56216550, 29.26045036, -23.38497543, -73.63343811, 65.22469330, 48.67593765, -51.05132675, -0.59685528, 0.59271377, 0.10165503, -0.53115022, 0.35724705, 0.33534187, -0.34195730, 0.00000000, 0.00000000, 0.00000000, 0.00000000
1, 0.8775, 312, 0.39373970, -0.93488228, 0.06524388, 50.16213608, -61.05503464, -3.56216550, 29.26045036, -23.38497543, -73.63343811, 65.18842316, 48.62001419, -51.26670837, -0.59629983, 0.59265065, 0.10032465, -0.53209651, 0.35660213, 0.33485210, -0.34264418, 0.00000000, 0.00000000, 0.00000000, 0.00000000
1, 0.8800, 313, 0.35259095, -0.92200363, 0.06259257, 53.37004471, -65.85781097, -0.14077212, 29.26045036, -23.38497543, -73.63343811, 65.18325806, 48.53392029, -51.46990967, -0.59577680, 0.59270024, 0.09870555, -0.53292936, 0.39675674, 0.32097572, -0.34051991, 0.00000000, 0.00000000, 0.00000000, 0.00000000
1, 0.8825, 314, 0.33765230, -0.91529220, 0.06125954, 55.40711594, -68.36891174, 2.19648194, 29.26045036, -23.38497543, -73.63343811, 65.14907837, 48.45715714, -51.70050430, -0.59523201, 0.59262913, 0.09714413, -0.53390324, 0.41080752, 0.31351972, -0.33996707, 0.00000000, 0.00000000, 0.00000000, 0.00000000
1, 0.8850, 315, 0.32661164, -0.91312259, 0.06070437, 57.94967651, -71.02587128, 5.29944706, 29.81584358, -22.94650650, -73.45805359, 65.11866760, 48.37046814, -51.93484116, -0.59469384, 0.59256434, 0.09547810, -0.53487450, 0.42084396, 0.31047148, -0.34020731, 0.00000000, 0.00000000, 0.00000000, 0.00000000
1, 0.8900, 316, 0.31006667, -0.91005898, 0.08192533, 63.46222687, -75.78955078, 12.00102234, 29.81584358, -22.94650650, -73.45805359, 65.07315826, 48.16652298, -52.41154480, -0.59363526, 0.59246755, 0.09182423, -0.53679401, 0.43501970, 0.30522120, -0.36302650, 0.00000000, 0.00000000, 0.00000000, 0.00000000
1, 0.8925, 317, 0.30597818, -0.90948480, 0.09208487, 66.72000122, -77.95951843, 15.38801384, 29.81584358, -22.94650650, -73.45805359, 65.06101990, 48.04948044, -52.65194321, -0.59310770, 0.59244800, 0.08983409, -0.53773469, 0.43774414, 0.30332780, -0.37395543, 0.00000000, 0.00000000, 0.00000000, 0.00000000
1, 0.8950, 318, 0.30576617, -0.91130573, 0.09902268, 70.48140717, -80.19293976, 18.70255852, 29.81584358, -22.94650650, -73.45805359, 65.05731201, 47.92254257, -52.89407730, -0.59257162, 0.59245420, 0.08772758, -0.53866577, 0.43647319, 0.30367434, -0.38162652, 0.00000000, 0.00000000, 0.00000000, 0.00000000
1, 0.8975, 319, 0.30725333, -0.91373324, 0.10594773, 74.31297302, -82.21797180, 22.01969719, 29.81584358, -22.94650650, -73.45805359, 65.06280518, 47.78595734, -53.13723755, -0.59202540, 0.59248906, 0.08550650, -0.53958440, 0.43338642, 0.30447209, -0.38923848, 0.00000000, 0.00000000, 0.00000000, 0.00000000
1, 0.9000, 320, 0.31358463, -0.91817904, 0.10941043, 77.85469055, -84.09513092, 24.57044792, 29.14352417, -23.67728615, -73.31189728, 65.07628632, 47.64163589, -53.38210678, -0.59146321, 0.59254855, 0.08318596, -0.54049754, 0.42536032, 0.30716133, -0.39334306, 0.00000000, 0.00000000, 0.00000000, 0.00000000
1, 0.9025, 321, 0.31941879, -0.92524248, 0.10660200, 81.03523254, -85.89433289, 26.35410118, 29.14352417, -23.67728615, -73.31189728, 65.09619904, 47.49142075, -53.62961197, -0.59088027, 0.59262711, 0.08078108, -0.54141307, 0.41775733, 0.31237108, -0.39113724, 0.00000000, 0.00000000, 0.00000000, 0.00000000
1, 0.9050, 322, 0.32562751, -0.93695217, 0.10213311, 84.07095337, -87.68387604, 27.43895531, 29.14352417, -23.67728615, -73.31189728, 65.12143707, 47.33692551, -53.88079453, -0.59026980, 0.59272128, 0.07830267, -0.54233915, 0.40972382, 0.32215446, -0.38723350, 0.00000000, 0.00000000, 0.00000000, 0.00000000
1, 0.9075, 323, 0.32734662, -0.95120847, 0.09372411, 87.10411072, -89.25693512, 27.96722603, 29.14352417, -23.67728615, -73.31189728, 65.15193176, 47.17966080, -54.13578415, -0.58962458, 0.59283245, 0.07576068, -0.54327989, 0.40614194, 0.33443004, -0.37934434, 0.00000000, 0.00000000, 0.00000000, 0.00000000
1, 0.9100, 324, 0.32662883, -0.96154809, 0.08574665, 90.21099854, -91.10186768, 28.21181870, 29.14352417, -23.67728615, -73.31189728, 65.18690491, 47.02001572, -54.39591599, -0.58894032, 0.59295726, 0.07315437, -0.54424208, 0.40496287, 0.34274262, -0.37184688, 0.00000000, 0.00000000, 0.00000000, 0.00000000
1, 0.9125, 325, 0.32553831, -0.97015643, 0.07694108, 93.03012848, -92.88355255, 28.66802216, 28.61736298, -24.11575508, -72.25957489, 65.22605133, 46.85757446, -54.66064453, -0.58822298, 0.59309292, 0.07048519, -0.54522145, 0.40411767, 0.34927475, -0.36348641, 0.00000000, 0.00000000, 0.00000000, 0.00000000
1, 0.9150, 326, 0.32346115, -0.97361231, 0.06858301, 95.85157013, -94.94216919, 29.12046814, 28.61736298, -24.11575508, -72.25957489, 65.26878357, 46.69208145, -54.93086624, -0.58747244, 0.59323579, 0.06774956, -0.54622120, 0.40421674, 0.35060549, -0.35554573, 0.00000000, 0.00000000, 0.00000000, 0.00000000
1, 0.9175, 327, 0.32173851, -0.97363722, 0.06113211, 98.53127289, -97.21314240, 29.78031349, 28.61736298, -24.11575508, -72.25957489, 65.31449890, 46.52286530, -55.20693970, -0.58669299, 0.59338135, 0.06494370, -0.54724067, 0.40391043, 0.34845167, -0.34849405, 0.00000000, 0.00000000, 0.00000000, 0.00000000
1, 0.9200, 328, 0.32183751, -0.97427332, 0.05403472, 100.99514008, -99.48394775, 30.30099106, 28.61736298, -24.11575508, -72.25957489, 65.36256409, 46.35023880, -55.48904800, -0.58588535, 0.59352624, 0.06207199, -0.54828107, 0.40173510, 0.34686261, -0.34178215, 0.00000000, 0.00000000, 0.00000000, 0.00000000
1, 0.9225, 329, 0.31998810, -0.97415495, 0.04511990, 103.09968567, -101.75920105, 30.89271927, 28.61736298, -24.11575508, -72.25957489, 65.41221619, 46.17407227, -55.77705765, -0.58505464, 0.59366560, 0.05913774, -0.54934061, 0.40145877, 0.34447497, -0.33324787, 0.00000000, 0.00000000, 0.00000000, 0.00000000
1, 0.9250, 330, 0.31937882, -0.97911203, 0.03905759, 105.20251465, -103.82674408, 31.48727226, 28.35428238, -24.58345413, -71.23648071, 65.46402740, 45.99458694, -56.07024765, -0.58420020, 0.59380144, 0.05614356, -0.55041617, 0.39989516, 0.34711891, -0.32755312, 0.00000000, 0.00000000, 0.00000000, 0.00000000
1, 0.9275, 331, 0.32084146, -0.98628575, 0.03393468, 106.79813385, -105.41432190, 32.08999252, 28.35428238, -24.58345413, -71.23648071, 65.51789856, 45.81226349, -56.36700821, -0.58332783, 0.59393275, 0.05310156, -0.55150050, 0.39621815, 0.35194176, -0.32278293, 0.00000000, 0.00000000, 0.00000000, 0.00000000
1, 0.9300, 332, 0.32243764, -0.99108583, 0.03483550, 108.32097626, -106.93003845, 32.48410034, 28.35428238, -24.58345413, -71.23648071, 65.58707428, 45.61896515, -56.65770721, -0.58245248, 0.59410912, 0.04994221, -0.55252987, 0.39226639, 0.35419428, -0.32391578, 0.00000000, 0.00000000, 0.00000000, 0.00000000
1, 0.9325, 333, 0.32478553, -0.99804139, 0.04058968, 109.69951630, -108.44161224, 32.52903748, 28.35428238, -24.58345413, -71.23648071, 65.64403534, 45.43296814, -56.96222687, -0.58153743, 0.59422785, 0.04681997, -0.55363834, 0.38764423, 0.35875255, -0.32999203, 0.00000000, 0.00000000, 0.00000000, 0.00000000
1, 0.9350, 334, 0.32594779, -1.00559497, 0.05342459, 111.00617218, -109.95384979, 32.57419968, 28.35428238, -24.58345413, -71.23648071, 65.70203400, 45.24553299, -57.27084351, -0.58060062, 0.59433782, 0.04366162, -0.55476058, 0.38418242, 0.36389279, -0.34313715, 0.00000000, 0.00000000, 0.00000000, 0.00000000
1, 0.9375, 335, 0.32348493, -1.01054668, 0.07229444, 112.59952545, -111.32823181, 32.83011246, 27.15580177, -25.02192307, -70.53492737, 65.76238251, 45.05631256, -57.58278275, -0.57964033, 0.59444422, 0.04046272, -0.55589199, 0.38431630, 0.36640483, -0.36229211, 0.00000000, 0.00000000, 0.00000000, 0.00000000
1, 0.9400, 336, 0.31787476, -1.01686323, 0.09102763, 114.84086609, -112.83393860, 33.01219177, 27.15580177, -25.02192307, -70.53492737, 65.82634735, 44.86537933, -57.89856339, -0.57864726, 0.59455341, 0.03721473, -0.55703562, 0.38756850, 0.37024969, -0.38127029, 0.00000000, 0.00000000, 0.00000000, 0.00000000
1, 0.9425, 337, 0.31360433, -1.03010488, 0.10439758, 117.80689240, -115.02639771, 33.25252533, 27.15580177, -25.02192307, -70.53492737, 65.89427948, 44.67191315, -58.22029114, -0.57761282, 0.59466577, 0.03389941, -0.55819976, 0.38944176, 0.38097721, -0.39484465, 0.00000000, 0.00000000, 0.00000000, 0.00000000
1, 0.9450, 338, 0.31452882, -1.04531097, 0.11063936, 120.99680328, -118.12462616, 33.96943283, 27.15580177, -25.02192307, -70.53492737, 65.96525574, 44.47393036, -58.55018616, -0.57653999, 0.59477288, 0.03049643, -0.55938971, 0.38605565, 0.39360905, -0.40126976, 0.00000000, 0.00000000, 0.00000000, 0.00000000
1, 0.9475, 339, 0.32077730, -1.05790925, 0.11678796, 125.19616699, -121.56184387, 34.81831360, 27.15580177, -25.02192307, -70.53492737, 66.04125977, 44.27081680, -58.88905716, -0.57541692, 0.59488279, 0.02698751, -0.56060821, 0.37727320, 0.40355682, -0.40756029, 0.00000000, 0.00000000, 0.00000000, 0.00000000
1, 0.9500, 340, 0.32858503, -1.07140195, 0.11717641, 129.67926025, -124.57765198, 35.46217346, 26.98041534, -24.32037354, -69.33644867, 66.12381744, 44.06350708, -59.23585510, -0.57423645, 0.59500313, 0.02337713, -0.56185174, 0.36687011, 0.41432607, -0.40802619, 0.00000000, 0.00000000, 0.00000000, 0.00000000
1, 0.9525, 341, 0.33589470, -1.08678174, 0.11179369, 134.01626587, -127.31784821, 36.11023712, 26.98041534, -24.32037354, -69.33644867, 66.21327209, 43.85231400, -59.58965683, -0.57299948, 0.59513479, 0.01967046, -0.56311566, 0.35690701, 0.42691141, -0.40264899, 0.00000000, 0.00000000, 0.00000000, 0.00000000
1, 0.9550, 342, 0.33486065, -1.10567498, 0.10869602, 138.63859558, -129.90591431, 36.06003571, 26.98041534, -24.32037354, -69.33644867, 66.31006622, 43.63906860, -59.95092773, -0.57169306, 0.59528226, 0.01587497, -0.56440604, 0.35525241, 0.44295746, -0.39947027, 0.00000000, 0.00000000, 0.00000000, 0.00000000
1, 0.9575, 343, 0.33693412, -1.12170899, 0.09573778, 143.18344116, -131.86709595, 35.73882294, 26.98041534, -24.32037354, -69.33644867, 66.41513824, 43.42504120, -60.31809235, -0.57031393, 0.59545118, 0.01200294, -0.56571722, 0.35047075, 0.45610154, -0.38632566, 0.00000000, 0.00000000, 0.00000000, 0.00000000
1, 0.9600, 344, 0.33269659, -1.13640809, 0.08195751, 147.87791443, -134.52041626, 35.47768021, 26.98041534, -24.32037354, -69.33644867, 66.52748108, 43.20945740, -60.69322586, -0.56886041, 0.59563434, 0.00804312, -0.56705648, 0.35197070, 0.46786457, -0.37226778, 0.00000000, 0.00000000, 0.00000000, 0.00000000
1, 0.9625, 345, 0.33305296, -1.14449370, 0.07144622, 152.50227356, -137.44586182, 34.86338043, 26.36655998, -24.37883568, -67.78719330, 66.64606476, 42.99295044, -61.07764053, -0.56732821, 0.59582657, 0.00399761, -0.56843072, 0.34885523, 0.47297996, -0.36139572, 0.00000000, 0.00000000, 0.00000000, 0.00000000
1, 0.9650, 346, 0.34263921, -1.14363325, 0.04003501, 156.69877625, -140.72703552, 34.59534454, 26.36655998, -24.37883568, -67.78719330, 66.76946259, 42.77439117, -61.47196960, -0.56572646, 0.59601748, -0.00013716, -0.56983930, 0.33647394, 0.46911138, -0.32956144, 0.00000000, 0.00000000, 0.00000000, 0.00000000
1, 0.9675, 347, 0.34749946, -1.12983811, 0.02251761, 160.82293701, -143.94071960, 34.39840698, 26.36655998, -24.37883568, -67.78719330, 66.89779663, 42.55376816, -61.87586594, -0.56405610, 0.59620601, -0.00436029, -0.57127941, 0.32878211, 0.45226896, -0.31155646, 0.00000000, 0.00000000, 0.00000000, 0.00000000
1, 0.9700, 348, 0.34749946, -1.12983811, 0.02251761, 160.82293701, -143.94071960, 34.39840698, 26.36655998, -24.37883568, -67.78719330, 67.02777863, 42.33380508, -62.27901077, -0.56237292, 0.59638101, -0.00858332, -0.57270658, 0.32594916, 0.44922978, -0.31102982, 0.00000000, 0.00000000, 0.00000000, 0.00000000
1, 0.9725, 349, 0.35851985, -1.12149799, -0.00707125, 169.22193909, -151.13497925, 34.41328049, 26.36655998, -24.37883568, -67.78719330, 67.16539764, 42.10750580, -62.70377350, -0.56056577, 0.59655493, -0.01299954, -0.57421184, 0.31200379, 0.43775243, -0.28083521, 0.00000000, 0.00000000, 0.00000000, 0.00000000
1, 0.9750, 350, 0.35851985, -1.12149799, -0.00707125, 169.22193909, -151.13497925, 34.41328049, 25.19731140, -23.64805603, -66.67640686, 67.30477905, 41.88197327, -63.12775803, -0.55874467, 0.59671390, -0.01741543, -0.57570279, 0.30907828, 0.43462431, -0.28018725, 0.00000000, 0.00000000, 0.00000000, 0.00000000
1, 0.9775, 351, 0.35458031, -1.12248111, -0.02565225, 170.39942932, -154.44435120, 34.15473938, 25.19731140, -23.64805603, -66.67640686, 67.44182587, 41.65460587, -63.56154251, -0.55688953, 0.59683061, -0.02188265, -0.57722485, 0.31005815, 0.43248141, -0.26097661, 0.00000000, 0.00000000, 0.00000000, 0.00000000
1, 0.9800, 352, 0.34472200, -1.12260759, -0.03724275, 171.13499451, -156.63565063, 33.00357819, 25.19731140, -23.64805603, -66.67640686, 67.58365631, 41.42307281, -63.99814224, -0.55500895, 0.59693497, -0.02641615, -0.57873654, 0.31689176, 0.42942327, -0.24869899, 0.00000000, 0.00000000, 0.00000000, 0.00000000
1, 0.9825, 353, 0.33716851, -1.12212455, -0.04772887, 171.66313171, -159.73674011, 32.33034134, 25.19731140, -23.64805603, -66.67640686, 67.71523285, 41.19646454, -64.44892120, -0.55308217, 0.59697008, -0.03093836, -0.58031869, 0.32147437, 0.42586952, -0.23761037, 0.00000000, 0.00000000, 0.00000000, 0.00000000
1, 0.9850, 354, 0.33093905, -1.11420727, -0.05321598, 171.62675476, -163.96421814, 32.48295593, 25.19731140, -23.64805603, -66.67640686, 67.84026337, 40.96625137, -64.91158295, -0.55113995, 0.59693497, -0.03551228, -0.58193833, 0.32467514, 0.41488594, -0.23159900, 0.00000000, 0.00000000, 0.00000000, 0.00000000
1, 0.9875, 355, 0.32372630, -1.09921265, -0.05529341, 171.52206421, -168.60887146, 32.70007324, 24.55422401, -23.58959389, -65.24407959, 67.95796967, 40.73192596, -65.38722992, -0.54918301, 0.59682304, -0.04014256, -0.58359993, 0.32879424, 0.39682811, -0.22908828, 0.00000000, 0.00000000, 0.00000000, 0.00000000
1, 0.9900, 356, 0.32514870, -1.08792937, -0.05292403, 171.48605347, -172.90335083, 32.71190262, 24.55422401, -23.58959389, -65.24407959, 68.06922913, 40.49425507, -65.87488556, -0.54720742, 0.59663898, -0.04482284, -0.58530068, 0.32422292, 0.38248914, -0.23110163, 0.00000000, 0.00000000, 0.00000000, 0.00000000
1, 0.9925, 357, 0.31891254, -1.07441199, -0.05453728, 171.23251343, -176.80093384, 33.77892303, 24.55422401, -23.58959389, -65.24407959, 68.17530823, 40.25119019, -66.37197113, -0.54522902, 0.59638375, -0.04955900, -0.58702272, 0.32722709, 0.36589605, -0.22920339, 0.00000000, 0.00000000, 0.00000000, 0.00000000
1, 0.9950, 358, 0.32383546, -1.05881214, -0.05198680, 171.05091858, -180.76158142, 34.49514771, 24.55422401, -23.58959389, -65.24407959, 68.27616882, 40.00347137, -66.87899017, -0.54324162, 0.59605718, -0.05434779, -0.58877057, 0.31899843, 0.34720927, -0.23153763, 0.00000000, 0.00000000, 0.00000000, 0.00000000
1, 0.9975, 359, 0.32851118, -1.04876661, -0.05660829, 171.00782776, -184.03398132, 35.56995392, 24.55422401, -23.58959389, -65.24407959, 68.37393188, 39.75090790, -67.39331818, -0.54124814, 0.59566867, -0.05918714, -0.59053034, 0.31093985, 0.33405381, -0.22674307, 0.00000000, 0.00000000, 0.00000000, 0.00000000
1, 1.0000, 360, 0.32410014, -1.04435492, -0.06569652, 170.74440002, -186.75341797, 36.58303833, 24.40806770, -21.92341423, -63.60713196, 68.46917725, 39.49415207, -67.91329956, -0.53925109, 0.59522241, -0.06406656, -0.59229571, 0.31189919, 0.32651383, -0.21751519, 0.00000000, 0.00000000, 0.00000000, 0.00000000
1, 1.0375, 361, 0.58976138, -1.00342417, -0.56601256, 150.72065735, -219.74171448, 17.31734276, 24.58345413, -19.93569183, -62.02864456, 69.41144562, 35.45801544, -76.53884888, -0.50738955, 0.58082956, -0.13934973, -0.62110758, -0.00965530, 0.24090832, 0.27957523, 0.00000000, 0.00000000, 0.00000000, 0.00000000
1, 1.0400, 362, 0.58867437, -0.98320508, -0.57902026, 148.18360901, -218.15411377, 11.75195694, 24.58345413, -19.93569183, -62.02864456, 69.42707825, 35.23878479, -77.15214539, -0.50499946, 0.57946843, -0.14391907, -0.62328094, -0.01168919, 0.21853858, 0.29201302, 0.00000000, 0.00000000, 0.00000000, 0.00000000
1, 1.0425, 363, 0.57680613, -0.96536624, -0.59240896, 146.36468506, -216.36306763, 6.88638353, 24.58345413, -19.93569183, -62.02864456, 69.44084930, 35.03265381, -77.76401520, -0.50255525, 0.57810789, -0.14837772, -0.62547064, -0.00276309, 0.19869208, 0.30485836, 0.00000000, 0.00000000, 0.00000000, 0.00000000
1, 1.0450, 364, 0.56916881, -0.93776870, -0.59905827, 145.84368896, -214.91819763, 2.78121281, 24.58345413, -19.93569183, -62.02864456, 69.45572662, 34.83752060, -78.37471771, -0.50005007, 0.57675594, -0.15275685, -0.62766862, 0.00208223, 0.16919366, 0.31102243, 0.00000000, 0.00000000, 0.00000000, 0.00000000
1, 1.0475, 365, 0.55752683, -0.90665829, -0.60332394, 146.18295288, -212.99816895, -0.20128401, 24.58345413, -19.93569183, -62.02864456, 69.47521210, 34.65120697, -78.98178101, -0.49749020, 0.57542557, -0.15707730, -0.62985373, 0.01105221, 0.13624978, 0.31489965, 0.00000000, 0.00000000, 0.00000000, 0.00000000
1, 1.0500, 366, 0.54760236, -0.87344235, -0.59949571, 147.67564392, -211.29164124, -2.14134479, 24.05729294, -19.93569183, -63.51943970, 69.50230408, 34.47113800, -79.58480835, -0.49487498, 0.57412320, -0.16137037, -0.63201338, 0.01838845, 0.10122746, 0.31081140, 0.00000000, 0.00000000, 0.00000000, 0.00000000
1, 1.0525, 367, 0.53940398, -0.84106362, -0.58810771, 150.09637451, -208.68724060, -3.37286305, 24.05729294, -20.72493362, -63.51943970, 69.54107666, 34.29650497, -80.18061066, -0.49220604, 0.57286912, -0.16564819, -0.63412529, 0.02407151, 0.06704092, 0.29934436, 0.00000000, 0.00000000, 0.00000000, 0.00000000
1, 1.0550, 368, 0.53437400, -0.81116140, -0.57444227, 153.37898254, -205.87806702, -3.90502095, 24.05729294, -20.72493362, -63.51943970, 69.59428406, 34.12597656, -80.76795197, -0.48948342, 0.57167310, -0.16992941, -0.63617605, 0.02664018, 0.03530247, 0.28581449, 0.00000000, 0.00000000, 0.00000000, 0.00000000
1, 1.0575, 369, 0.52863652, -0.78352356, -0.55738860, 157.51840210, -202.30470276, -4.07991600, 24.05729294, -20.72493362, -63.51943970, 69.66535950, 33.95949173, -81.34442902, -0.48670456, 0.57055354, -0.17422239, -0.63814878, 0.02996992, 0.00578183, 0.26915815, 0.00000000, 0.00000000, 0.00000000, 0.00000000
1, 1.0600, 370, 0.52157515, -0.75895947, -0.54074579, 162.51708984, -198.24632263, -3.76146269, 24.05729294, -20.72493362, -63.51943970, 69.75735474, 33.79645538, -81.90826416, -0.48386818, 0.56952459, -0.17854041, -0.64002866, 0.03466892, -0.02073216, 0.25321564, 0.00000000, 0.00000000, 0.00000000, 0.00000000
1, 1.0625, 371, 0.51122183, -0.73530191, -0.53058660, 168.37771606, -193.98316956, -2.74364901, 24.05729294, -20.72493362, -63.51943970, 69.87297058, 33.63556290, -82.45832062, -0.48097461, 0.56859517, -0.18290231, -0.64180195, 0.04268640, -0.04643178, 0.24409404, 0.00000000, 0.00000000, 0.00000000, 0.00000000
1, 1.0650, 372, 0.49008086, -0.69315290, -0.53613019, 175.24884033, -190.13369751, -1.24516702, 23.96959877, -22.21572685, -63.72405624, 70.01421356, 33.47546768, -82.99539185, -0.47801700, 0.56776780, -0.18733284, -0.64346409, 0.06149887, -0.09073623, 0.25103787, 0.00000000, 0.00000000, 0.00000000, 0.00000000
1, 1.0675, 373, 0.47795030, -0.67160010, -0.55141664, 182.70281982, -186.48544312, 4.58496714, 23.96959877, -22.21572685, -63.72405624, 70.18460846, 33.30599976, -83.51574707, -0.47504836, 0.56702733, -0.19189613, -0.64496899, 0.07115987, -0.11466467, 0.26810488, 0.00000000, 0.00000000, 0.00000000, 0.00000000
1, 1.0700, 374, 0.47795030, -0.67160010, -0.55141664, 182.70281982, -186.48544312, 4.58496714, 23.96959877, -22.21572685, -63.72405624, 70.35648346, 33.13782883, -84.03569794, -0.47206435, 0.56626844, -0.19645320, -0.64645302, 0.06870449, -0.11702564, 0.26992428, 0.00000000, 0.00000000, 0.00000000, 0.00000000
1, 1.0725, 375, 0.46578670, -0.63547915, -0.63148904, 207.17582703, -180.28881836, 12.56217194, 23.96959877, -22.21572685, -63.72405624, 70.60487366, 32.95763397, -84.52997589, -0.46890092, 0.56579542, -0.20138341, -0.64765131, 0.07823187, -0.15597731, 0.35284847, 0.00000000, 0.00000000, 0.00000000, 0.00000000
1, 1.0750, 376, 0.46578670, -0.63547915, -0.63148904, 207.17582703, -180.28881836, 12.56217194, 23.96959877, -22.21572685, -63.72405624, 70.85459137, 32.77923584, -85.02419281, -0.46572062, 0.56530201, -0.20630640, -0.64882636, 0.07561672, -0.15878052, 0.35574639, 0.00000000, 0.00000000, 0.00000000, 0.00000000
1, 1.0775, 377, 0.48780242, -0.60838151, -0.75747144, 217.81724548, -179.08045959, 21.28628349, 24.26191139, -22.39111328, -63.40251160, 71.13869476, 32.58314514, -85.50651550, -0.46252075, 0.56487364, -0.21146767, -0.64982593, 0.05072036, -0.18898451, 0.48507306, 0.00000000, 0.00000000, 0.00000000, 0.00000000
1, 1.0800, 378, 0.50654280, -0.59729844, -0.83041424, 219.04402161, -178.92835999, 25.55068398, 24.26191139, -22.39111328, -63.40251160, 71.42147827, 32.37891006, -85.98862457, -0.45936668, 0.56437725, -0.21666472, -0.65078187, 0.02897298, -0.20321655, 0.56134474, 0.00000000, 0.00000000, 0.00000000, 0.00000000
1, 1.0825, 379, 0.52735758, -0.58601892, -0.89920354, 217.75752258, -179.20637512, 29.25794792, 24.26191139, -22.39111328, -63.40251160, 71.71205139, 32.16785431, -86.46395111, -0.45624509, 0.56386614, -0.22190841, -0.65165341, 0.00504369, -0.21771806, 0.63358033, 0.00000000, 0.00000000, 0.00000000, 0.00000000
1, 1.0850, 380, 0.54719907, -0.57109493, -0.96524674, 214.24165344, -179.49421692, 32.27295685, 24.26191139, -22.39111328, -63.40251160, 71.99632263, 31.95143700, -86.93744659, -0.45319083, 0.56327993, -0.22713362, -0.65249074, -0.01799893, -0.23585683, 0.70299459, 0.00000000, 0.00000000, 0.00000000, 0.00000000
1, 1.0875, 381, 0.56404215, -0.55619407, -1.02199697, 208.77914429, -179.36059570, 33.76136398, 24.26191139, -22.39111328, -63.40251160, 72.26931000, 31.73353004, -87.40933990, -0.45020872, 0.56261331, -0.23228960, -0.65331453, -0.03807282, -0.25390911, 0.76298141, 0.00000000, 0.00000000, 0.00000000, 0.00000000
1, 1.0900, 382, 0.57855278, -0.53561187, -1.08134401, 202.02340698, -179.37207031, 34.90233231, 23.67728615, -23.56036186, -63.13943100, 72.52739716, 31.51475906, -87.88032532, -0.44730961, 0.56185424, -0.23735510, -0.65413809, -0.05583479, -0.27755970, 0.82537937, 0.00000000, 0.00000000, 0.00000000, 0.00000000
1, 1.0925, 383, 0.59221208, -0.51163042, -1.13794887, 194.40350342, -179.24870300, 35.76819229, 23.67728615, -23.56036186, -63.13943100, 72.76856232, 31.29576302, -88.35020447, -0.44450134, 0.56099862, -0.24231300, -0.65496838, -0.07275629, -0.30451357, 0.88481891, 0.00000000, 0.00000000, 0.00000000, 0.00000000
1, 1.0950, 384, 0.60660559, -0.48803687, -1.19297266, 185.55972290, -178.86422729, 36.92135620, 23.67728615, -23.56036186, -63.13943100, 72.99023438, 31.07591629, -88.81797028, -0.44180515, 0.56003803, -0.24714693, -0.65580797, -0.09043241, -0.33098024, 0.94242096, 0.00000000, 0.00000000, 0.00000000, 0.00000000
1, 1.0975, 385, 0.61860037, -0.46419528, -1.24028921, 175.63458252, -178.07766724, 38.29332733, 23.67728615, -23.56036186, -63.13943100, 73.19044495, 30.85482979, -89.28223419, -0.43924025, 0.55896807, -0.25184029, -0.65665764, -0.10573590, -0.35759285, 0.99202687, 0.00000000, 0.00000000, 0.00000000, 0.00000000
