SensorId, TimeStamp (s), FrameNumber, AccX (g), AccY (g), AccZ (g), GyroX (deg/s), GyroY (deg/s), GyroZ (deg/s), MagX (uT), MagY (uT), MagZ (uT), EulerX (deg), EulerY (deg), EulerZ (deg), QuatW, QuatX, QuatY, QuatZ, LinAccX (g), LinAccY (g), LinAccZ (g), Pressure (kPa), Altitude (m), Temperature (degC), HeaveMotion (m)
1, 0.0000, 0, -0.73539990, -0.62577444, 0.00593525, -0.96335858, 3.17866302, 9.24774456, -28.90967560, 10.20169544, -66.96871948, 89.80551910, -49.16294861, -86.37928772, -0.67059445, 0.26636612, -0.65417057, -0.22674450, -0.02117229, -0.02813202, -0.00815519, 0.00000000, 0.00000000, 0.00000000, 0.00000000
1, 0.0025, 1, -0.73745525, -0.62253499, 0.01087695, -1.47827625, 4.56091118, 9.12829208, -28.90967560, 10.20169544, -66.96871948, 89.78852081, -49.18573380, -86.36171722, -0.67071331, 0.26623678, -0.65414953, -0.22660555, -0.01937688, -0.03107000, -0.01328975, 0.00000000, 0.00000000, 0.00000000, 0.00000000
1, 0.0050, 2, -0.73659205, -0.62574053, 0.01180368, -2.20952177, 6.01148081, 8.94052982, -28.90967560, 10.20169544, -66.96871948, 89.76549530, -49.20801544, -86.33857727, -0.67085612, 0.26610658, -0.65410256, -0.22647133, -0.02049423, -0.02756882, -0.01447803, 0.00000000, 0.00000000, 0.00000000, 0.00000000
1, 0.0075, 3, -0.73005050, -0.62666214, 0.00957662, -3.00771618, 6.90418291, 8.95524406, -28.90967560, 10.20169544, -66.96871948, 89.73785400, -49.23033524, -86.31201935, -0.67101634, 0.26596889, -0.65403867, -0.22634311, -0.02729023, -0.02635104, -0.01256473, 0.00000000, 0.00000000, 0.00000000, 0.00000000
1, 0.0100, 4, -0.72944140, -0.62776196, 0.00931414, -4.02040195, 7.65639591, 8.96875477, -29.23121834, 10.72785759, -68.13796997, 89.70547485, -49.25265884, -86.28253174, -0.67119312, 0.26581985, -0.65395874, -0.22622472, -0.02815367, -0.02495415, -0.01266974, 0.00000000, 0.00000000, 0.00000000, 0.00000000
1, 0.0125, 5, -0.73270911, -0.62755567, 0.01103476, -5.03507423, 8.68226337, 9.19580364, -29.23121834, 10.72785759, -68.13796997, 89.66754913, -49.27553177, -86.24908447, -0.67139155, 0.26565778, -0.65386009, -0.22611155, -0.02514649, -0.02485568, -0.01482073, 0.00000000, 0.00000000, 0.00000000, 0.00000000
1, 0.0150, 6, -0.73753560, -0.62766862, 0.01739718, -6.05158424, 9.91694355, 9.35574722, -29.23121834, 10.72785759, -68.13796997, 89.62344360, -49.29875946, -86.21086121, -0.67161417, 0.26548460, -0.65373921, -0.22600336, -0.02058441, -0.02443219, -0.02168326, 0.00000000, 0.00000000, 0.00000000, 0.00000000
1, 0.0175, 7, -0.73753399, -0.62646383, 0.01912639, -7.13882113, 11.01247406, 9.51403713, -29.23121834, 10.72785759, -68.13796997, 89.57337952, -49.32236099, -86.16837311, -0.67185944, 0.26529858, -0.65359765, -0.22590196, -0.02085459, -0.02532083, -0.02397999, 0.00000000, 0.00000000, 0.00000000, 0.00000000
1, 0.0200, 8, -0.73401982, -0.62874454, 0.01639593, -8.43892765, 11.76090145, 9.59837627, -29.23121834, 10.72785759, -68.13796997, 89.51783752, -49.34611511, -86.12295532, -0.67212331, 0.26509598, -0.65343922, -0.22581354, -0.02463902, -0.02272052, -0.02187876, 0.00000000, 0.00000000, 0.00000000, 0.00000000
1, 0.0225, 9, -0.73172337, -0.63161415, 0.01145940, -9.44563293, 11.81854248, 9.74232769, -29.23121834, 10.72785759, -68.13796997, 89.45954132, -49.37021637, -86.07725525, -0.67239434, 0.26487678, -0.65327561, -0.22573693, -0.02720934, -0.01952600, -0.01760198, 0.00000000, 0.00000000, 0.00000000, 0.00000000
1, 0.0250, 10, -0.73389560, -0.63723648, 0.00844504, -10.23428154, 11.60014820, 9.95176506, -28.79274940, 10.61093235, -68.19643402, 89.39985657, -49.39479828, -86.03233337, -0.67266780, 0.26464194, -0.65311253, -0.22566977, -0.02531642, -0.01357109, -0.01526253, 0.00000000, 0.00000000, 0.00000000, 0.00000000
1, 0.0275, 11, -0.73643893, -0.63992286, 0.00633176, -10.59106255, 11.31654453, 10.15890598, -28.79274940, 10.61093235, -68.19643402, 89.34004211, -49.41988373, -85.98842621, -0.67294014, 0.26439744, -0.65295291, -0.22560623, -0.02305800, -0.01054484, -0.01382487, 0.00000000, 0.00000000, 0.00000000, 0.00000000
1, 0.0300, 12, -0.73960191, -0.64243525, 0.00043430, -10.65848064, 10.82681656, 10.43224525, -28.79274940, 10.61093235, -68.19643402, 89.28142548, -49.44564819, -85.94633484, -0.67320710, 0.26414558, -0.65280163, -0.22554243, -0.02018744, -0.00768304, -0.00858860, 0.00000000, 0.00000000, 0.00000000, 0.00000000
1, 0.0325, 13, -0.74336463, -0.64667302, -0.00536615, -10.36281872, 9.92282200, 10.83866215, -28.79274940, 10.61093235, -68.19643402, 89.22609711, -49.47241211, -85.90763855, -0.67346144, 0.26388779, -0.65266734, -0.22547361, -0.01672835, -0.00308192, -0.00341108, 0.00000000, 0.00000000, 0.00000000, 0.00000000
1, 0.0350, 14, -0.74784857, -0.65045381, -0.00895857, -9.92119312, 8.74432182, 11.17093754, -28.79274940, 10.61093235, -68.19643402, 89.17526245, -49.50004578, -85.87338257, -0.67369795, 0.26362595, -0.65255433, -0.22540037, -0.01255769, 0.00107330, -0.00038988, 0.00000000, 0.00000000, 0.00000000, 0.00000000
1, 0.0375, 15, -0.75147444, -0.65717691, -0.01284219, -9.04676056, 7.36433125, 11.35918617, -29.08506203, 11.31248188, -68.13796997, 89.13058472, -49.52816391, -85.84439087, -0.67391062, 0.26336744, -0.65246689, -0.22531983, -0.00925046, 0.00817722, 0.00299306, 0.00000000, 0.00000000, 0.00000000, 0.00000000
1, 0.0400, 16, -0.75572336, -0.65898824, -0.01652714, -8.03076553, 6.26153660, 11.62067318, -29.08506203, 11.31248188, -68.13796997, 89.09163666, -49.55696487, -85.81958008, -0.67410296, 0.26311475, -0.65240216, -0.22522731, -0.00532770, 0.01037783, 0.00624293, 0.00000000, 0.00000000, 0.00000000, 0.00000000
1, 0.0425, 17, -0.76130313, -0.66021031, -0.01885618, -6.87028027, 5.02600431, 11.60012627, -29.08506203, 11.31248188, -68.13796997, 89.05917358, -49.58576202, -85.79948425, -0.67427087, 0.26287329, -0.65236104, -0.22512561, -0.00007391, 0.01198835, 0.00821076, 0.00000000, 0.00000000, 0.00000000, 0.00000000
1, 0.0450, 18, -0.76651073, -0.66134435, -0.01861848, -5.85392141, 3.85616875, 11.72082043, -29.08506203, 11.31248188, -68.13796997, 89.03264618, -49.61489868, -85.78386688, -0.67441684, 0.26263931, -0.65234274, -0.22501436, 0.00480413, 0.01351464, 0.00767942, 0.00000000, 0.00000000, 0.00000000, 0.00000000
1, 0.0475, 19, -0.76967359, -0.65889037, -0.01930762, -4.98269224, 2.82566261, 11.70399857, -29.08506203, 11.31248188, -68.13796997, 89.01129150, -49.64403915, -85.77219391, -0.67454308, 0.26241329, -0.65234381, -0.22489688, 0.00763756, 0.01145214, 0.00813386, 0.00000000, 0.00000000, 0.00000000, 0.00000000
1, 0.0500, 20, -0.77500415, -0.65941209, -0.01893810, -4.32663822, 1.72500360, 11.61699009, -28.64659500, 11.34171295, -68.63490295, 88.98867035, -49.67227936, -85.75985718, -0.67467159, 0.26218864, -0.65233868, -0.22478789, 0.01264906, 0.01235396, 0.00751537, 0.00000000, 0.00000000, 0.00000000, 0.00000000
1, 0.0525, 21, -0.77658385, -0.65916145, -0.01978640, -3.96084285, 0.90300274, 11.25494671, -28.64659500, 11.34171295, -68.63490295, 88.97551727, -49.70036316, -85.75559235, -0.67476231, 0.26197460, -0.65237033, -0.22467344, 0.01391160, 0.01247978, 0.00822182, 0.00000000, 0.00000000, 0.00000000, 0.00000000
1, 0.0550, 22, -0.77915037, -0.65763408, -0.02427907, -3.81263494, 0.28889737, 10.75655556, -28.64659500, 11.34171295, -68.63490295, 88.96455383, -49.72723770, -85.75371552, -0.67484099, 0.26176682, -0.65240884, -0.22456770, 0.01617486, 0.01131237, 0.01259722, 0.00000000, 0.00000000, 0.00000000, 0.00000000
1, 0.0575, 23, -0.78438497, -0.65611398, -0.02913298, -3.66684079, -0.04715938, 10.19200039, -28.64659500, 11.34171295, -68.63490295, 88.95498657, -49.75272369, -85.75318146, -0.67491114, 0.26156750, -0.65244973, -0.22447008, 0.02112198, 0.01013351, 0.01734932, 0.00000000, 0.00000000, 0.00000000, 0.00000000
1, 0.0600, 24, -0.78501117, -0.65676224, -0.03561808, -3.73859072, -0.23906572, 9.14053154, -28.64659500, 11.34171295, -68.63490295, 88.94584656, -49.77557373, -85.75345612, -0.67497385, 0.26138118, -0.65248710, -0.22439007, 0.02149058, 0.01108813, 0.02373704, 0.00000000, 0.00000000, 0.00000000, 0.00000000
1, 0.0625, 25, -0.78501117, -0.65676224, -0.03561808, -3.73859072, -0.23906572, 9.14053154, -29.46506882, 12.10172462, -68.13796997, 88.93670654, -49.79843521, -85.75373077, -0.67503649, 0.26119483, -0.65252441, -0.22431003, 0.02123297, 0.01139468, 0.02363967, 0.00000000, 0.00000000, 0.00000000, 0.00000000
1, 0.0650, 26, -0.78140044, -0.66100156, -0.04754353, -3.88190246, -0.43493912, 8.29906368, -29.46506882, 12.10172462, -68.13796997, 88.92783356, -49.81919479, -85.75480652, -0.67509300, 0.26101741, -0.65255910, -0.22424555, 0.01738841, 0.01591260, 0.03547041, 0.00000000, 0.00000000, 0.00000000, 0.00000000
1, 0.0675, 27, -0.78140044, -0.66100156, -0.04754353, -3.88190246, -0.43493912, 8.29906368, -29.46506882, 12.10172462, -68.13796997, 88.91896057, -49.83995819, -85.75588989, -0.67514950, 0.26084000, -0.65259373, -0.22418106, 0.01715463, 0.01619130, 0.03537563, 0.00000000, 0.00000000, 0.00000000, 0.00000000
1, 0.0700, 28, -0.78237718, -0.65879720, -0.04726339, -2.44800615, -0.06653403, 7.73985147, -29.46506882, 12.10172462, -68.13796997, 88.91259003, -49.85930252, -85.75557709, -0.67520034, 0.26069340, -0.65262675, -0.22410229, 0.01791370, 0.01424641, 0.03502877, 0.00000000, 0.00000000, 0.00000000, 0.00000000
1, 0.0725, 29, -0.78178149, -0.65426922, -0.04560672, -1.73249972, 0.29076239, 7.46259737, -29.46506882, 12.10172462, -68.13796997, 88.90698242, -49.87794876, -85.75389862, -0.67525077, 0.26056308, -0.65265644, -0.22401537, 0.01710827, 0.00996828, 0.03331378, 0.00000000, 0.00000000, 0.00000000, 0.00000000
1, 0.0750, 30, -0.78118324, -0.65205407, -0.04557404, -1.37650764, 0.64580005, 7.11654711, -29.40660667, 11.28325081, -68.34259033, 88.90122986, -49.89570999, -85.75086975, -0.67530257, 0.26044464, -0.65268064, -0.22392645, 0.01631027, 0.00799131, 0.03322082, 0.00000000, 0.00000000, 0.00000000, 0.00000000
1, 0.0775, 31, -0.77985764, -0.64959317, -0.04529468, -1.08966458, 0.71882212, 7.04665995, -29.40660667, 11.28325081, -68.34259033, 88.89595795, -49.91328049, -85.74755096, -0.67535347, 0.26033175, -0.65270478, -0.22383407, 0.01478714, 0.00576615, 0.03288682, 0.00000000, 0.00000000, 0.00000000, 0.00000000
1, 0.0800, 32, -0.77633172, -0.64925671, -0.04187522, -1.16432273, 1.06323981, 7.12151432, -29.40660667, 11.28325081, -68.34259033, 88.88948822, -49.93103790, -85.74288940, -0.67540997, 0.26021835, -0.65272391, -0.22373968, 0.01106167, 0.00566810, 0.02939923, 0.00000000, 0.00000000, 0.00000000, 0.00000000
1, 0.0825, 33, -0.77645653, -0.64572930, -0.03925482, -1.16363966, 0.99290365, 7.19049835, -29.40660667, 11.28325081, -68.34259033, 88.88320923, -49.94895935, -85.73849487, -0.67546576, 0.26010364, -0.65274435, -0.22364463, 0.01098520, 0.00238156, 0.02671299, 0.00000000, 0.00000000, 0.00000000, 0.00000000
1, 0.0850, 34, -0.77730399, -0.64137626, -0.03442074, -1.01829696, 0.85137755, 7.46786499, -29.40660667, 11.28325081, -68.34259033, 88.87770081, -49.96758652, -85.73462677, -0.67552006, 0.25998643, -0.65276921, -0.22354425, 0.01162350, -0.00172150, 0.02182196, 0.00000000, 0.00000000, 0.00000000, 0.00000000
1, 0.0875, 35, -0.78046322, -0.63615096, -0.03115715, -0.80085963, 0.70832562, 7.88485432, -28.76351929, 12.07249355, -67.81642914, 88.87313080, -49.98725128, -85.73126984, -0.67557317, 0.25986582, -0.65279961, -0.22343546, 0.01456201, -0.00668293, 0.01851217, 0.00000000, 0.00000000, 0.00000000, 0.00000000
1, 0.0900, 36, -0.78508073, -0.63176501, -0.02985857, -0.22123747, 0.22354168, 8.22608662, -28.76351929, 12.07249355, -67.81642914, 88.87142944, -50.00780106, -85.72976685, -0.67561769, 0.25974652, -0.65284187, -0.22331610, 0.01894885, -0.01079381, 0.01719994, 0.00000000, 0.00000000, 0.00000000, 0.00000000
1, 0.0925, 37, -0.78715575, -0.62711269, -0.02917211, 0.13812663, 0.29064390, 8.57552242, -28.76351929, 12.07249355, -67.81642914, 88.87040710, -50.02922058, -85.72797394, -0.67566282, 0.25962785, -0.65288681, -0.22318609, 0.02078379, -0.01515949, 0.01650768, 0.00000000, 0.00000000, 0.00000000, 0.00000000
1, 0.0950, 38, -0.78462070, -0.62233341, -0.02727118, 0.27985880, 0.62938643, 9.13917351, -28.76351929, 12.07249355, -67.81642914, 88.86869049, -50.05203247, -85.72483063, -0.67571467, 0.25950485, -0.65293068, -0.22304381, 0.01799304, -0.01963330, 0.01459354, 0.00000000, 0.00000000, 0.00000000, 0.00000000
1, 0.0975, 39, -0.78171802, -0.62011266, -0.02687653, -0.15566190, 1.23860908, 9.77831936, -28.76351929, 12.07249355, -67.81642914, 88.86402893, -50.07641983, -85.71925354, -0.67578077, 0.25936928, -0.65296698, -0.22289486, 0.01481712, -0.02152682, 0.01415309, 0.00000000, 0.00000000, 0.00000000, 0.00000000
1, 0.1000, 40, -0.77492344, -0.61913770, -0.02406498, -1.23549068, 1.56154275, 10.62550735, -29.14352417, 11.34171295, -68.40105438, 88.84228516, -50.11882019, -85.70210266, -0.67594093, 0.25909549, -0.65298688, -0.22266945, 0.00754780, -0.02192903, 0.01110949, 0.00000000, 0.00000000, 0.00000000, 0.00000000
1, 0.1025, 41, -0.77419561, -0.61404854, -0.01861187, -2.89199591, 2.08571911, 11.54725266, -29.14352417, 11.34171295, -68.40105438, 88.82810974, -50.14758682, -85.69305420, -0.67604303, 0.25889844, -0.65300727, -0.22252855, 0.00649816, -0.02662998, 0.00550564, 0.00000000, 0.00000000, 0.00000000, 0.00000000
1, 0.1050, 42, -0.77335453, -0.61025870, -0.01684481, -4.26219034, 2.68840981, 12.04948330, -29.14352417, 11.34171295, -68.40105438, 88.80865479, -50.17756653, -85.68159485, -0.67616391, 0.25867698, -0.65301502, -0.22239636, 0.00532192, -0.03001363, 0.00352943, 0.00000000, 0.00000000, 0.00000000, 0.00000000
1, 0.1075, 43, -0.77142197, -0.61034298, -0.01892741, -5.56208277, 3.43464112, 12.27367210, -29.14352417, 11.34171295, -68.40105438, 88.78366852, -50.20806122, -85.66717529, -0.67630374, 0.25843671, -0.65300655, -0.22227512, 0.00304860, -0.02951461, 0.00534152, 0.00000000, 0.00000000, 0.00000000, 0.00000000
1, 0.1100, 44, -0.76523888, -0.61346817, -0.02192066, -6.35686064, 3.97566271, 12.63330555, -29.14352417, 11.34171295, -68.40105438, 88.75504303, -50.23941803, -85.65058136, -0.67645746, 0.25818223, -0.65298831, -0.22215687, -0.00348467, -0.02596194, 0.00802408, 0.00000000, 0.00000000, 0.00000000, 0.00000000
1, 0.1125, 45, -0.75893188, -0.61769372, -0.02529760, -6.86368656, 4.51497650, 13.27173615, -28.90967560, 11.22478771, -68.43028259, 88.72341919, -50.27234268, -85.63179016, -0.67662472, 0.25791371, -0.65296310, -0.22203332, -0.01015908, -0.02128697, 0.01105808, 0.00000000, 0.00000000, 0.00000000, 0.00000000
1, 0.1150, 46, -0.75637937, -0.62061787, -0.02632517, -7.01042080, 4.98731184, 13.97802162, -28.90967560, 11.22478771, -68.43028259, 88.68992615, -50.30699539, -85.61103821, -0.67680287, 0.25763527, -0.65293407, -0.22189876, -0.01309800, -0.01788926, 0.01172280, 0.00000000, 0.00000000, 0.00000000, 0.00000000
1, 0.1175, 47, -0.75964093, -0.62370759, -0.02624359, -6.87157249, 5.67224169, 14.54637623, -28.90967560, 11.22478771, -68.43028259, 88.65464783, -50.34302139, -85.58751678, -0.67699271, 0.25735402, -0.65289885, -0.22174998, -0.01023787, -0.01430643, 0.01125941, 0.00000000, 0.00000000, 0.00000000, 0.00000000
1, 0.1200, 48, -0.76035649, -0.62824130, -0.02753351, -6.58708000, 6.08595943, 14.83081818, -28.90967560, 11.22478771, -68.43028259, 88.61875916, -50.37972641, -85.56229401, -0.67718804, 0.25707492, -0.65286028, -0.22159055, -0.00993097, -0.00927013, 0.01216156, 0.00000000, 0.00000000, 0.00000000, 0.00000000
1, 0.1225, 49, -0.76277936, -0.63261998, -0.03162809, -5.94097948, 6.22718143, 15.04043961, -28.90967560, 11.22478771, -68.43028259, 88.58398438, -50.41694641, -85.53644562, -0.67738277, 0.25680304, -0.65282393, -0.22141804, -0.00792217, -0.00438172, 0.01588163, 0.00000000, 0.00000000, 0.00000000, 0.00000000
1, 0.1250, 50, -0.76628256, -0.63438147, -0.02993712, -5.22090292, 6.09432316, 15.10622597, -29.05583191, 11.83864307, -68.54721069, 88.55135345, -50.45431900, -85.51104736, -0.67757165, 0.25654012, -0.65279317, -0.22123495, -0.00483441, -0.00210846, 0.01384063, 0.00000000, 0.00000000, 0.00000000, 0.00000000
1, 0.1275, 51, -0.77062911, -0.63713712, -0.02777085, -4.57454538, 6.16960335, 15.10513401, -29.05583191, 11.83864307, -68.54721069, 88.52006531, -50.49168015, -85.48529816, -0.67775798, 0.25628713, -0.65276438, -0.22104225, -0.00090277, 0.00115883, 0.01133974, 0.00000000, 0.00000000, 0.00000000, 0.00000000
1, 0.1300, 52, -0.77499419, -0.63824278, -0.02924521, -3.92782426, 6.17784357, 14.96325207, -29.05583191, 11.83864307, -68.54721069, 88.49032593, -50.52866364, -85.45948792, -0.67794007, 0.25604576, -0.65273774, -0.22084239, 0.00305170, 0.00277114, 0.01249709, 0.00000000, 0.00000000, 0.00000000, 0.00000000
1, 0.1325, 53, -0.77874851, -0.63839531, -0.02838448, -3.56978297, 6.32187319, 14.82415485, -29.05583191, 11.83864307, -68.54721069, 88.46100616, -50.56529617, -85.43307495, -0.67812145, 0.25581232, -0.65270984, -0.22063866, 0.00639975, 0.00342578, 0.01132444, 0.00000000, 0.00000000, 0.00000000, 0.00000000
1, 0.1350, 54, -0.77923173, -0.63804102, -0.02752268, -3.20875120, 6.11861658, 14.75027657, -29.05583191, 11.83864307, -68.54721069, 88.43316650, -50.60174179, -85.40741730, -0.67829740, 0.25558421, -0.65268612, -0.22043195, 0.00647903, 0.00357103, 0.01016754, 0.00000000, 0.00000000, 0.00000000, 0.00000000
1, 0.1375, 55, -0.77839088, -0.63727880, -0.02897910, -3.13755298, 6.18962383, 14.68106747, -29.75738144, 12.94942951, -68.54721069, 88.40523529, -50.63800049, -85.38143921, -0.67847365, 0.25535846, -0.65266126, -0.22022483, 0.00523669, 0.00330657, 0.01132832, 0.00000000, 0.00000000, 0.00000000, 0.00000000
1, 0.1400, 56, -0.77743495, -0.63552225, -0.03115372, -2.92086124, 6.05426121, 14.60858345, -29.75738144, 12.94942951, -68.54721069, 88.37822723, -50.67409134, -85.35596466, -0.67864627, 0.25513625, -0.65263897, -0.22001642, 0.00388140, 0.00204521, 0.01321786, 0.00000000, 0.00000000, 0.00000000, 0.00000000
1, 0.1425, 57, -0.77659965, -0.63558567, -0.03506672, -2.91782737, 5.64322948, 14.32323933, -29.75738144, 12.94942951, -68.54721069, 88.35247040, -50.70949173, -85.33209991, -0.67881155, 0.25491619, -0.65262115, -0.21981449, 0.00265473, 0.00259441, 0.01685983, 0.00000000, 0.00000000, 0.00000000, 0.00000000
1, 0.1450, 58, -0.77734613, -0.63575327, -0.04081104, -2.77034688, 5.16320562, 14.10642815, -29.75738144, 12.94942951, -68.54721069, 88.32852173, -50.74435806, -85.31010437, -0.67896807, 0.25469908, -0.65260983, -0.21961631, 0.00301594, 0.00324082, 0.02235330, 0.00000000, 0.00000000, 0.00000000, 0.00000000
1, 0.1475, 59, -0.78123087, -0.64010918, -0.04697964, -2.76479316, 4.47302723, 13.95717144, -29.75738144, 12.94942951, -68.54721069, 88.30667114, -50.77891159, -85.29081726, -0.67911392, 0.25448081, -0.65260786, -0.21942404, 0.00651926, 0.00807065, 0.02829449, 0.00000000, 0.00000000, 0.00000000, 0.00000000
1, 0.1500, 60, -0.78619748, -0.64571851, -0.05182104, -2.61663008, 3.92266631, 13.80934238, -29.55276108, 13.50482273, -68.05027771, 88.26274872, -50.81092072, -85.25409698, -0.67933744, 0.25424549, -0.65251893, -0.21926901, 0.01113272, 0.01412719, 0.03266450, 0.00000000, 0.00000000, 0.00000000, 0.00000000
1, 0.1525, 61, -0.78874141, -0.65130955, -0.05715591, -2.39690471, 3.37627316, 13.45151520, -29.55276108, 13.50482273, -68.05027771, 88.24514771, -50.84428787, -85.23912048, -0.67946315, 0.25403464, -0.65253204, -0.21908504, 0.01330883, 0.02017516, 0.03781916, 0.00000000, 0.00000000, 0.00000000, 0.00000000
1, 0.1550, 62, -0.79262108, -0.65508050, -0.06123821, -1.74840951, 3.11305547, 12.95624638, -29.55276108, 13.50482273, -68.05027771, 88.22998047, -50.87641907, -85.22521210, -0.67957908, 0.25383911, -0.65254927, -0.21890059, 0.01683450, 0.02438617, 0.04174789, 0.00000000, 0.00000000, 0.00000000, 0.00000000
1, 0.1575, 63, -0.80146360, -0.65308785, -0.05727928, -1.17089927, 2.77663326, 12.67003632, -29.55276108, 13.50482273, -68.05027771, 88.21731567, -50.90786362, -85.21265411, -0.67968559, 0.25365463, -0.65257269, -0.21871404, 0.02533085, 0.02282352, 0.03766274, 0.00000000, 0.00000000, 0.00000000, 0.00000000
1, 0.1600, 64, -0.80435365, -0.65136194, -0.04991510, -0.59387839, 2.38195872, 11.68363667, -29.55276108, 13.50482273, -68.05027771, 88.20737457, -50.93687057, -85.20175934, -0.67977852, 0.25349087, -0.65259916, -0.21853606, 0.02790178, 0.02149386, 0.03020153, 0.00000000, 0.00000000, 0.00000000, 0.00000000
1, 0.1625, 65, -0.80435365, -0.65136194, -0.04991510, -0.59387839, 2.38195872, 11.68363667, -29.84507370, 13.88482857, -68.89797974, 88.19741821, -50.96587753, -85.19085693, -0.67987144, 0.25332704, -0.65262556, -0.21835807, 0.02758283, 0.02189023, 0.03010440, 0.00000000, 0.00000000, 0.00000000, 0.00000000
1, 0.1925, 66, -0.73616570, -0.59399307, -0.00738495, -4.13429117, 4.37232590, 10.74303818, -29.34814262, 12.97866154, -68.57643890, 88.04077911, -51.24704742, -85.04900360, -0.68096679, 0.25158674, -0.65268958, -0.21675958, -0.04368633, -0.03160471, -0.01401591, 0.00000000, 0.00000000, 0.00000000, 0.00000000
1, 0.1950, 67, -0.72720730, -0.59148091, -0.00822022, -4.92533398, 4.55837154, 11.65736771, -29.34814262, 12.97866154, -68.57643890, 88.01300812, -51.27579117, -85.02919006, -0.68111390, 0.25136912, -0.65266252, -0.21663150, -0.05295868, -0.03371555, -0.01347036, 0.00000000, 0.00000000, 0.00000000, 0.00000000
1, 0.1975, 68, -0.71946591, -0.58786476, -0.00928049, -5.71501017, 4.60374594, 12.70966434, -29.34814262, 12.97866154, -68.57643890, 87.98297882, -51.30714798, -85.00902557, -0.68127084, 0.25112495, -0.65263677, -0.21649873, -0.06104232, -0.03689343, -0.01272265, 0.00000000, 0.00000000, 0.00000000, 0.00000000
1, 0.2000, 69, -0.71049720, -0.58503079, -0.00681153, -6.79257679, 4.71347475, 13.90365601, -29.34814262, 12.97866154, -68.57643890, 87.95809174, -51.33670807, -84.99484253, -0.68140197, 0.25088748, -0.65262961, -0.21638274, -0.07033342, -0.03931516, -0.01544869, 0.00000000, 0.00000000, 0.00000000, 0.00000000
1, 0.2025, 70, -0.70697951, -0.58199543, -0.00298414, -7.94343424, 5.02694845, 15.31047058, -29.69891739, 12.68634892, -68.60566711, 87.92080688, -51.37452316, -84.97251892, -0.68158925, 0.25057510, -0.65260112, -0.21624069, -0.07426329, -0.04182095, -0.01966366, 0.00000000, 0.00000000, 0.00000000, 0.00000000
1, 0.2050, 71, -0.70456725, -0.58060259, -0.00504512, -9.09612846, 5.54923344, 16.65018082, -29.69891739, 12.68634892, -68.60566711, 87.87878418, -51.41560364, -84.94786072, -0.68179649, 0.25022891, -0.65256667, -0.21609224, -0.07712294, -0.04263694, -0.01803944, 0.00000000, 0.00000000, 0.00000000, 0.00000000
1, 0.2075, 72, -0.70540965, -0.58353913, -0.00631032, -9.96057034, 5.94012403, 17.70740891, -29.69891739, 12.68634892, -68.60566711, 87.83319092, -51.45928574, -84.92138672, -0.68201888, 0.24985664, -0.65252793, -0.21593821, -0.07675578, -0.03908611, -0.01724770, 0.00000000, 0.00000000, 0.00000000, 0.00000000
1, 0.2100, 73, -0.70395648, -0.58728170, -0.01064750, -10.39530087, 6.47791195, 18.48546219, -29.69891739, 12.68634892, -68.60566711, 87.78464508, -51.50484467, -84.89256287, -0.68225479, 0.24946930, -0.65248322, -0.21577580, -0.07870413, -0.03470165, -0.01341397, 0.00000000, 0.00000000, 0.00000000, 0.00000000
1, 0.2125, 74, -0.70445621, -0.59025252, -0.01802381, -10.46983528, 6.94762325, 19.40129852, -29.69891739, 12.68634892, -68.60566711, 87.73423767, -51.55262756, -84.86161804, -0.68250191, 0.24906996, -0.65243608, -0.21559823, -0.07872327, -0.03105689, -0.00655896, 0.00000000, 0.00000000, 0.00000000, 0.00000000
1, 0.2150, 75, -0.70313001, -0.59167087, -0.02159196, -10.18254757, 7.14264250, 20.38216591, -29.99123001, 12.71557999, -67.93334961, 87.68372345, -51.60284042, -84.82963562, -0.68275464, 0.24866176, -0.65239245, -0.21540080, -0.08059406, -0.02893078, -0.00351086, 0.00000000, 0.00000000, 0.00000000, 0.00000000
1, 0.2175, 76, -0.70154035, -0.59486955, -0.02091100, -10.25502872, 7.40134478, 21.50494957, -29.99123001, 12.71557999, -67.93334961, 87.63197327, -51.65580750, -84.79631805, -0.68301654, 0.24823767, -0.65235060, -0.21518625, -0.08275743, -0.02498508, -0.00472244, 0.00000000, 0.00000000, 0.00000000, 0.00000000
1, 0.2200, 77, -0.70272499, -0.59837919, -0.01656320, -10.32719421, 7.65675020, 22.83751106, -29.99123001, 12.71557999, -67.93334961, 87.57894135, -51.71204758, -84.76162720, -0.68328851, 0.24779467, -0.65231162, -0.21495144, -0.08218145, -0.02068192, -0.00961144, 0.00000000, 0.00000000, 0.00000000, 0.00000000
1, 0.2225, 78, -0.70732838, -0.59514117, -0.01234948, -10.54297066, 7.84597158, 23.88988304, -29.99123001, 12.71557999, -67.93334961, 87.52449799, -51.77088165, -84.72586060, -0.68356907, 0.24733426, -0.65227431, -0.21470287, -0.07821393, -0.02308929, -0.01437849, 0.00000000, 0.00000000, 0.00000000, 0.00000000
1, 0.2250, 79, -0.71642202, -0.59190321, -0.00959295, -10.68304253, 7.55339813, 24.79559517, -29.99123001, 12.71557999, -67.93334961, 87.47037506, -51.83198929, -84.69097900, -0.68385023, 0.24685743, -0.65224528, -0.21444434, -0.06977981, -0.02546442, -0.01768205, 0.00000000, 0.00000000, 0.00000000, 0.00000000
1, 0.2275, 80, -0.72539246, -0.59194332, -0.00969739, -10.53921604, 7.61738634, 25.21563148, -29.78661156, 13.53405380, -68.37181854, 87.41622162, -51.89410782, -84.65561676, -0.68413323, 0.24637699, -0.65221804, -0.21417707, -0.06147893, -0.02454627, -0.01812272, 0.00000000, 0.00000000, 0.00000000, 0.00000000
1, 0.2300, 81, -0.73544526, -0.59359843, -0.00896895, -10.11117363, 8.03464317, 25.35977364, -29.78661156, 13.53405380, -68.37181854, 87.36163330, -51.95652771, -84.61839294, -0.68442029, 0.24590270, -0.65218705, -0.21389920, -0.05209793, -0.02200771, -0.01939895, 0.00000000, 0.00000000, 0.00000000, 0.00000000
1, 0.2325, 82, -0.74065751, -0.59495562, -0.01032323, -9.61240292, 8.59104729, 25.50556564, -29.78661156, 13.53405380, -68.37181854, 87.30635834, -52.01923370, -84.57873535, -0.68471301, 0.24543630, -0.65215057, -0.21360898, -0.04755968, -0.01976162, -0.01859811, 0.00000000, 0.00000000, 0.00000000, 0.00000000
1, 0.2350, 83, -0.74164134, -0.59575099, -0.01522129, -8.89625645, 8.94175339, 25.64786148, -29.78661156, 13.53405380, -68.37181854, 87.25157928, -52.08220673, -84.53747559, -0.68500721, 0.24498013, -0.65211272, -0.21330453, -0.04725176, -0.01807255, -0.01424614, 0.00000000, 0.00000000, 0.00000000, 0.00000000
1, 0.2375, 84, -0.74893272, -0.59631610, -0.02108048, -8.32099152, 8.94492817, 25.78590584, -29.78661156, 13.53405380, -68.37181854, 87.19805908, -52.14551163, -84.49601746, -0.68529886, 0.24453051, -0.65207803, -0.21298972, -0.04063886, -0.01660866, -0.00891772, 0.00000000, 0.00000000, 0.00000000, 0.00000000
1, 0.2400, 85, -0.75912023, -0.60021847, -0.02661825, -8.03062534, 8.66517067, 26.13086128, -30.31277466, 13.32943535, -67.81642914, 87.14595795, -52.20969009, -84.45547485, -0.68558627, 0.24407895, -0.65205044, -0.21266703, -0.03113825, -0.01179505, -0.00389325, 0.00000000, 0.00000000, 0.00000000, 0.00000000
1, 0.2425, 86, -0.77523816, -0.60273278, -0.02796790, -7.74036551, 8.38651276, 26.40589714, -30.31277466, 13.32943535, -67.81642914, 87.09528351, -52.27457047, -84.41585541, -0.68586922, 0.24362639, -0.65202957, -0.21233746, -0.01571370, -0.00835949, -0.00303948, 0.00000000, 0.00000000, 0.00000000, 0.00000000
1, 0.2450, 87, -0.79062247, -0.60975134, -0.03219856, -7.73805904, 8.10956287, 26.40213394, -30.31277466, 13.32943535, -67.81642914, 87.04537201, -52.33944321, -84.37723541, -0.68614781, 0.24317254, -0.65201259, -0.21200933, -0.00102168, -0.00041872, 0.00070507, 0.00000000, 0.00000000, 0.00000000, 0.00000000
1, 0.2475, 88, -0.80552375, -0.61579132, -0.03592643, -7.59173298, 7.76801252, 26.18720436, -30.31277466, 13.32943535, -67.81642914, 86.99682617, -52.40381622, -84.33989716, -0.68641961, 0.24272229, -0.65200001, -0.21168408, 0.01319367, 0.00653672, 0.00396255, 0.00000000, 0.00000000, 0.00000000, 0.00000000
1, 0.2500, 89, -0.81570160, -0.61852193, -0.03741375, -7.37567997, 7.63924074, 25.69516945, -30.31277466, 13.32943535, -67.81642914, 86.94745636, -52.46828079, -84.30167389, -0.68669403, 0.24227148, -0.65198457, -0.21135753, 0.02268559, 0.01018548, 0.00497241, 0.00000000, 0.00000000, 0.00000000, 0.00000000
1, 0.2525, 90, -0.82164323, -0.62011617, -0.03962555, -6.94466639, 7.58282089, 25.13347816, -29.64045525, 14.17714119, -69.10260010, 86.90103149, -52.52999878, -84.26504517, -0.68695438, 0.24184486, -0.65197170, -0.21103969, 0.02797145, 0.01265967, 0.00673753, 0.00000000, 0.00000000, 0.00000000, 0.00000000
1, 0.2550, 91, -0.83338690, -0.61659479, -0.03172695, -6.29753685, 7.46027565, 24.50023842, -29.64045525, 14.17714119, -69.10260010, 86.85661316, -52.59016037, -84.22893524, -0.68720639, 0.24143627, -0.65196007, -0.21072266, 0.03907681, 0.00999618, -0.00158629, 0.00000000, 0.00000000, 0.00000000, 0.00000000
1, 0.2575, 92, -0.83971530, -0.60283256, -0.02466025, -6.08310747, 7.53811932, 24.08095169, -29.64045525, 14.17714119, -69.10260010, 86.81242371, -52.64922333, -84.19245911, -0.68745619, 0.24103716, -0.65194577, -0.21040839, 0.04477936, -0.00292224, -0.00907524, 0.00000000, 0.00000000, 0.00000000, 0.00000000
1, 0.2600, 93, -0.84179062, -0.59175813, -0.01739901, -6.30255127, 7.82843304, 23.10644531, -29.64045525, 14.17714119, -69.10260010, 86.76679993, -52.70579910, -84.15489197, -0.68770671, 0.24064991, -0.65192091, -0.21011029, 0.04625601, -0.01318550, -0.01677457, 0.00000000, 0.00000000, 0.00000000, 0.00000000
1, 0.2625, 94, -0.84179062, -0.59175813, -0.01739901, -6.30255127, 7.82843304, 23.10644531, -29.64045525, 14.17714119, -69.10260010, 86.72104645, -52.76236725, -84.11720276, -0.68795693, 0.24026254, -0.65189576, -0.20981209, 0.04565818, -0.01237369, -0.01721267, 0.00000000, 0.00000000, 0.00000000, 0.00000000
1, 0.2650, 95, -0.83517402, -0.57795417, -0.01769002, -10.12513256, 9.25452518, 22.64869690, -29.23121834, 13.82636642, -68.51797485, 86.66101074, -52.81756210, -84.07360840, -0.68824518, 0.23983079, -0.65182912, -0.20956762, 0.03845900, -0.02537513, -0.01750995, 0.00000000, 0.00000000, 0.00000000, 0.00000000
1, 0.2675, 96, -0.83517402, -0.57795417, -0.01769002, -10.12513256, 9.25452518, 22.64869690, -29.23121834, 13.82636642, -68.51797485, 86.60083008, -52.87271881, -84.02985382, -0.68853319, 0.23939897, -0.65176225, -0.20932309, 0.03787762, -0.02457190, -0.01809818, 0.00000000, 0.00000000, 0.00000000, 0.00000000
1, 0.2700, 97, -0.81725067, -0.58434445, -0.02931112, -16.59753609, 9.79526234, 24.07598686, -29.23121834, 13.82636642, -68.51797485, 86.52223206, -52.93132019, -83.98333740, -0.68886900, 0.23885201, -0.65166491, -0.20914626, 0.01933730, -0.01731754, -0.00725409, 0.00000000, 0.00000000, 0.00000000, 0.00000000
1, 0.2725, 98, -0.80770022, -0.58225691, -0.03467540, -19.90505409, 10.09078979, 25.34972572, -29.23121834, 13.82636642, -68.51797485, 86.43393707, -52.99303055, -83.93506622, -0.68923169, 0.23823844, -0.65155435, -0.20899566, 0.00913811, -0.01849002, -0.00276346, 0.00000000, 0.00000000, 0.00000000, 0.00000000
1, 0.2750, 99, -0.80482125, -0.57618421, -0.03715448, -23.21535110, 10.73140621, 26.69809341, -29.23121834, 13.82636642, -68.51797485, 86.33474731, -53.05795288, -83.88356018, -0.68962634, 0.23755869, -0.65142566, -0.20886835, 0.00557762, -0.02359366, -0.00126646, 0.00000000, 0.00000000, 0.00000000, 0.00000000
1, 0.2775, 100, -0.80022639, -0.57114947, -0.03525385, -26.81264114, 11.36384487, 28.39698982, -29.90353584, 13.06635475, -69.24875641, 86.22383118, -53.12694168, -83.82868195, -0.69005597, 0.23680341, -0.65127945, -0.20876320, 0.00025970, -0.02759207, -0.00426471, 0.00000000, 0.00000000, 0.00000000, 0.00000000
1, 0.2800, 101, -0.79694790, -0.56328231, -0.02548653, -30.77143478, 12.26767921, 30.24062538, -29.90353584, 13.06635475, -69.24875641, 86.09931183, -53.20032501, -83.76921082, -0.69052660, 0.23596625, -0.65111059, -0.20868167, -0.00378668, -0.03434933, -0.01526344, 0.00000000, 0.00000000, 0.00000000, 0.00000000
1, 0.2825, 102, -0.78908533, -0.55070043, -0.01724499, -35.52920532, 14.13564968, 31.96007156, -29.90353584, 13.06635475, -69.24875641, 85.95588684, -53.27758408, -83.70104980, -0.69105542, 0.23504123, -0.65090001, -0.20863199, -0.01245624, -0.04574967, -0.02492471, 0.00000000, 0.00000000, 0.00000000, 0.00000000
1, 0.2850, 103, -0.78338826, -0.55576146, -0.02258862, -41.29484177, 16.19973755, 33.82534790, -29.90353584, 13.06635475, -69.24875641, 85.79024506, -53.35901260, -83.62323761, -0.69165069, 0.23401187, -0.65064079, -0.20862521, -0.01900232, -0.03942753, -0.02122153, 0.00000000, 0.00000000, 0.00000000, 0.00000000
1, 0.2875, 104, -0.77124143, -0.56949651, -0.02966682, -47.12657547, 17.69716644, 36.45249939, -29.90353584, 13.06635475, -69.24875641, 85.60379028, -53.44657135, -83.53775024, -0.69230783, 0.23286365, -0.65034467, -0.20865357, -0.03206021, -0.02432353, -0.01598595, 0.00000000, 0.00000000, 0.00000000, 0.00000000
1, 0.2900, 105, -0.76129252, -0.58257169, -0.04064074, -52.09703445, 19.40597534, 39.35945892, -29.14352417, 15.08330917, -69.45337677, 85.39776611, -53.54087067, -83.44348145, -0.69302624, 0.23160641, -0.65001369, -0.20869945, -0.04298825, -0.00976193, -0.00704079, 0.00000000, 0.00000000, 0.00000000, 0.00000000
1, 0.2925, 106, -0.75257325, -0.59315771, -0.05414018, -55.63269043, 21.41065216, 41.91604233, -29.14352417, 15.08330917, -69.45337677, 85.17468262, -53.64090347, -83.33909607, -0.69380093, 0.23026803, -0.64964759, -0.20874618, -0.05274379, 0.00241441, 0.00427086, 0.00000000, 0.00000000, 0.00000000, 0.00000000
1, 0.2950, 107, -0.74336326, -0.60328120, -0.06543399, -58.16117859, 23.28955269, 44.25781250, -29.14352417, 15.08330917, -69.45337677, 84.93734741, -53.74611282, -83.22501373, -0.69462377, 0.22886616, -0.64925158, -0.20878330, -0.06304103, 0.01422369, 0.01324870, 0.00000000, 0.00000000, 0.00000000, 0.00000000
1, 0.2975, 108, -0.73475391, -0.61076427, -0.07240923, -60.18508530, 24.96873856, 46.38539886, -29.14352417, 15.08330917, -69.45337677, 84.68759918, -53.85596466, -83.10198975, -0.69548827, 0.22741047, -0.64882970, -0.20880789, -0.07278271, 0.02348018, 0.01780007, 0.00000000, 0.00000000, 0.00000000, 0.00000000
1, 0.3000, 109, -0.72710884, -0.61645681, -0.07593357, -61.70714188, 26.72954559, 48.02286911, -29.14352417, 15.08330917, -69.45337677, 84.42441559, -53.96349716, -82.96782684, -0.69639069, 0.22594699, -0.64835835, -0.20885269, -0.08153331, 0.03093928, 0.01877471, 0.00000000, 0.00000000, 0.00000000, 0.00000000
1, 0.3025, 110, -0.71766627, -0.61696821, -0.08011546, -62.43949890, 28.57137299, 49.37910461, -29.96199989, 14.26483440, -69.30722046, 84.15350342, -54.07920837, -82.82594299, -0.69732642, 0.22442971, -0.64788210, -0.20884450, -0.09216239, 0.03335351, 0.02035523, 0.00000000, 0.00000000, 0.00000000, 0.00000000
1, 0.3050, 111, -0.70654720, -0.61654013, -0.08929648, -62.31107712, 30.56632614, 50.31496048, -29.96199989, 14.26483440, -69.30722046, 83.87445068, -54.19635773, -82.67383575, -0.69829154, 0.22290944, -0.64737844, -0.20880975, -0.10447925, 0.03487074, 0.02687135, 0.00000000, 0.00000000, 0.00000000, 0.00000000
1, 0.3075, 112, -0.69493413, -0.61966038, -0.09951042, -61.38755798, 32.01696014, 51.10094452, -29.96199989, 14.26483440, -69.30722046, 83.59105682, -54.31460953, -82.51374817, -0.69927388, 0.22139797, -0.64685839, -0.20874220, -0.11729795, 0.03997153, 0.03439602, 0.00000000, 0.00000000, 0.00000000, 0.00000000
1, 0.3100, 113, -0.67933220, -0.61956620, -0.10968331, -59.73818970, 32.64235687, 51.94332123, -29.96199989, 14.26483440, -69.30722046, 83.30789948, -54.43429947, -82.34912872, -0.70025843, 0.21990184, -0.64633811, -0.20863476, -0.13411674, 0.04189283, 0.04190277, 0.00000000, 0.00000000, 0.00000000, 0.00000000
1, 0.3125, 114, -0.66671968, -0.61868352, -0.10712948, -57.72719574, 33.12165451, 53.48192215, -29.96199989, 14.26483440, -69.30722046, 83.02604675, -54.55720901, -82.18017578, -0.70124459, 0.21841615, -0.64582479, -0.20847243, -0.14797509, 0.04308385, 0.03672004, 0.00000000, 0.00000000, 0.00000000, 0.00000000
1, 0.3150, 115, -0.65457624, -0.61847323, -0.10067467, -55.50436783, 34.21182632, 55.93734741, -29.99123001, 15.46331501, -70.24261475, 82.74338531, -54.68538666, -82.00368500, -0.70224428, 0.21693411, -0.64531446, -0.20823534, -0.16141376, 0.04503728, 0.02765682, 0.00000000, 0.00000000, 0.00000000, 0.00000000
1, 0.3175, 116, -0.64623934, -0.59906179, -0.08841923, -52.99718857, 35.78055191, 58.95784760, -29.99123001, 15.46331501, -70.24261475, 82.45850372, -54.82003403, -81.81708527, -0.70326537, 0.21545427, -0.64480335, -0.20790845, -0.17110687, 0.02789861, 0.01280305, 0.00000000, 0.00000000, 0.00000000, 0.00000000
1, 0.3200, 117, -0.64397383, -0.56534016, -0.06432351, -50.70194244, 36.86589813, 61.76266861, -29.99123001, 15.46331501, -70.24261475, 82.17247772, -54.96072388, -81.62238312, -0.70430112, 0.21397431, -0.64429688, -0.20750040, -0.17478472, -0.00344831, -0.01386950, 0.00000000, 0.00000000, 0.00000000, 0.00000000
1, 0.3225, 118, -0.63780344, -0.53715754, -0.03848763, -48.76495361, 37.80941391, 64.56673431, -29.99123001, 15.46331501, -70.24261475, 81.88469696, -55.10748291, -81.41999054, -0.70535117, 0.21248823, -0.64379537, -0.20701690, -0.18242294, -0.02915317, -0.04226488, 0.00000000, 0.00000000, 0.00000000, 0.00000000
1, 0.3250, 119, -0.62163460, -0.52927774, -0.01677117, -47.11495590, 38.74475098, 67.72132874, -29.99123001, 15.46331501, -70.24261475, 81.59410095, -55.26109695, -81.20949554, -0.70641828, 0.21098666, -0.64329910, -0.20645656, -0.20012265, -0.03443844, -0.06653084, 0.00000000, 0.00000000, 0.00000000, 0.00000000
1, 0.3275, 120, -0.59150839, -0.53472984, -0.00396340, -45.60927582, 39.87437439, 71.64836121, -29.43583679, 16.51563835, -70.12569427, 81.29895020, -55.42339325, -80.98929596, -0.70750904, 0.20945734, -0.64280754, -0.20580846, -0.23185956, -0.02624649, -0.08188883, 0.00000000, 0.00000000, 0.00000000, 0.00000000
1, 0.3300, 121, -0.55412048, -0.54567504, -0.00017501, -43.95694351, 40.78553772, 76.34131622, -29.43583679, 16.51563835, -70.12569427, 80.99967957, -55.59630585, -80.75952911, -0.70862305, 0.20789090, -0.64232808, -0.20505971, -0.27095646, -0.01238871, -0.08821708, 0.00000000, 0.00000000, 0.00000000, 0.00000000
1, 0.3325, 122, -0.52368212, -0.53989196, 0.00938259, -41.93766785, 40.92636871, 81.79194641, -29.43583679, 16.51563835, -70.12569427, 80.69916534, -55.78191376, -80.52262878, -0.70975095, 0.20627894, -0.64187711, -0.20419677, -0.30322063, -0.01505982, -0.10026808, 0.00000000, 0.00000000, 0.00000000, 0.00000000
1, 0.3350, 123, -0.50222033, -0.53012592, 0.02121910, -40.27801132, 41.19242859, 87.87492371, -29.43583679, 16.51563835, -70.12569427, 80.39527130, -55.98169327, -80.27720642, -0.71089870, 0.20460770, -0.64145368, -0.20321424, -0.32663840, -0.02148974, -0.11456497, 0.00000000, 0.00000000, 0.00000000, 0.00000000
1, 0.3375, 124, -0.48805627, -0.51447845, 0.03206081, -38.89935684, 40.75573730, 94.43886566, -29.43583679, 16.51563835, -70.12569427, 80.08914185, -56.19711685, -80.02550507, -0.71205926, 0.20286286, -0.64106888, -0.20211138, -0.34290001, -0.03355694, -0.12781556, 0.00000000, 0.00000000, 0.00000000, 0.00000000
1, 0.3400, 125, -0.47650346, -0.48367447, 0.03959619, -37.73121262, 39.75763702, 101.34557343, -29.66968727, 16.36948204, -70.03800201, 79.78157806, -56.42921066, -79.76923370, -0.71322691, 0.20103401, -0.64073139, -0.20088814, -0.35669968, -0.06052192, -0.13769351, 0.00000000, 0.00000000, 0.00000000, 0.00000000
1, 0.3425, 126, -0.47687241, -0.44100189, 0.04721547, -37.56692505, 38.53474045, 108.74211121, -29.66968727, 16.36948204, -70.03800201, 79.47010040, -56.67926407, -79.50848389, -0.71440434, 0.19909757, -0.64044183, -0.19955151, -0.35873601, -0.09907269, -0.14760424, 0.00000000, 0.00000000, 0.00000000, 0.00000000
1, 0.3450, 127, -0.47275457, -0.40703806, 0.04626063, -39.05596161, 37.36013794, 116.49439240, -29.66968727, 16.36948204, -70.03800201, 79.14952850, -56.94812012, -79.24211121, -0.71560043, 0.19702305, -0.64019305, -0.19811851, -0.36542240, -0.12860966, -0.14893030, 0.00000000, 0.00000000, 0.00000000, 0.00000000
1, 0.3475, 128, -0.46605843, -0.37925306, 0.04838303, -41.90831757, 36.02112198, 125.08818817, -29.66968727, 16.36948204, -70.03800201, 78.81579590, -57.23786926, -78.96939850, -0.71682113, 0.19477651, -0.63998431, -0.19659524, -0.37486583, -0.15162250, -0.15334743, 0.00000000, 0.00000000, 0.00000000, 0.00000000
1, 0.3500, 129, -0.47273931, -0.33427283, 0.05592838, -45.83676910, 34.65006638, 135.08387756, -29.66968727, 16.36948204, -70.03800201, 78.47682953, -57.55118179, -78.69908142, -0.71803594, 0.19234318, -0.63985360, -0.19497675, -0.37113157, -0.19145897, -0.16311139, 0.00000000, 0.00000000, 0.00000000, 0.00000000
1, 0.3525, 130, -0.48224339, -0.29328132, 0.04912135, -50.63103104, 33.81057358, 145.99880981, -29.61122513, 18.91259766, -71.23648071, 78.10195160, -57.89142609, -78.40538025, -0.71933711, 0.18965466, -0.63971746, -0.19325341, -0.36479881, -0.22682512, -0.15870675, 0.00000000, 0.00000000, 0.00000000, 0.00000000
1, 0.3550, 131, -0.49069068, -0.28787574, -0.03973834, -56.78557205, 32.39563370, 157.46990967, -29.61122513, 18.91259766, -71.23648071, 77.70043945, -58.25938034, -78.09959412, -0.72068310, 0.18670106, -0.63961679, -0.19143932, -0.35974750, -0.22612444, -0.07232793, 0.00000000, 0.00000000, 0.00000000, 0.00000000
1, 0.3575, 132, -0.50191844, -0.35837895, -0.09969386, -63.43251801, 29.78906631, 169.55592346, -29.61122513, 18.91259766, -71.23648071, 77.27378845, -58.65706253, -77.78505707, -0.72205955, 0.18346064, -0.63956898, -0.18953571, -0.35215074, -0.14900240, -0.01489363, 0.00000000, 0.00000000, 0.00000000, 0.00000000
1, 0.3600, 133, -0.50191844, -0.35837895, -0.09969386, -63.43251801, 29.78906631, 169.55592346, -29.61122513, 18.91259766, -71.23648071, 76.83795929, -59.05350876, -77.46112061, -0.72342443, 0.18021725, -0.63951087, -0.18762904, -0.35572928, -0.14234984, -0.01740133, 0.00000000, 0.00000000, 0.00000000, 0.00000000
1, 0.3625, 134, -0.59316754, -0.40226850, -0.20710166, -78.30465698, 17.45767403, 205.03684998, -29.61122513, 18.91259766, -71.23648071, 76.37071228, -59.54203033, -77.14537048, -0.72480685, 0.17619018, -0.63971359, -0.18541476, -0.26883358, -0.09036390, 0.08765456, 0.00000000, 0.00000000, 0.00000000, 0.00000000
1, 0.3650, 135, -0.59316754, -0.40226850, -0.20710166, -78.30465698, 17.45767403, 205.03684998, -29.61122513, 18.91259766, -71.23648071, 75.89119720, -60.02920914, -76.81700897, -0.72617251, 0.17215902, -0.63990152, -0.18319617, -0.27311248, -0.08222082, 0.08532698, 0.00000000, 0.00000000, 0.00000000, 0.00000000
1, 0.3675, 136, -0.74411261, -0.43398482, -0.24772544, -81.29693604, 8.62696743, 223.11129761, -29.43583679, 20.28646660, -70.62262726, 75.40898895, -60.56423187, -76.49585724, -0.72748023, 0.16778854, -0.64026928, -0.18076162, -0.12679440, -0.04161310, 0.12392093, 0.00000000, 0.00000000, 0.00000000, 0.00000000
1, 0.3700, 137, -0.82468921, -0.43849123, -0.24237491, -81.41131592, 6.36061811, 230.63447571, -29.43583679, 20.28646660, -70.62262726, 74.91326141, -61.11751556, -76.16125488, -0.72876626, 0.16329758, -0.64068246, -0.17821255, -0.05092289, -0.02787558, 0.11665508, 0.00000000, 0.00000000, 0.00000000, 0.00000000
1, 0.3725, 138, -0.91052485, -0.44053024, -0.24797361, -81.54649353, 6.33404064, 236.64939880, -29.43583679, 20.28646660, -70.62262726, 74.39420319, -61.68385696, -75.80226135, -0.73005450, 0.15871555, -0.64109820, -0.17556465, 0.03018130, -0.01632011, 0.12036867, 0.00000000, 0.00000000, 0.00000000, 0.00000000
1, 0.3750, 139, -0.98422921, -0.45357612, -0.26231948, -81.40132141, 6.89041328, 240.99276733, -29.43583679, 20.28646660, -70.62262726, 73.84994507, -62.25863647, -75.41624451, -0.73134452, 0.15407239, -0.64150125, -0.17283830, 0.09917161, 0.00646416, 0.13284379, 0.00000000, 0.00000000, 0.00000000, 0.00000000
1, 0.3775, 140, -1.06276309, -0.48937684, -0.29472244, -80.75415802, 7.33717823, 243.79431152, -29.43583679, 20.28646660, -71.99649048, 73.28227234, -62.83802795, -75.00404358, -0.73262644, 0.14939724, -0.64188904, -0.17005131, 0.17304373, 0.05216396, 0.16340458, 0.00000000, 0.00000000, 0.00000000, 0.00000000
1, 0.3800, 141, -1.14308012, -0.52775204, -0.31958494, -78.74522400, 8.02748203, 245.12596130, -29.31891251, 21.83572006, -71.99649048, 72.69370270, -63.41814423, -74.56492615, -0.73389333, 0.14473343, -0.64225745, -0.16720729, 0.24878436, 0.10053408, 0.18646966, 0.00000000, 0.00000000, 0.00000000, 0.00000000
1, 0.3825, 142, -1.23647773, -0.56053811, -0.33541468, -74.87693024, 9.59355927, 244.71492004, -29.31891251, 21.83572006, -71.99649048, 72.08563995, -63.99400330, -74.09549713, -0.73514539, 0.14013846, -0.64259338, -0.16430545, 0.33772981, 0.14333072, 0.20054473, 0.00000000, 0.00000000, 0.00000000, 0.00000000
1, 0.3850, 143, -1.34279835, -0.59018475, -0.33418444, -69.00942230, 12.58295918, 243.05769348, -29.31891251, 21.83572006, -71.99649048, 71.45654297, -64.56131744, -73.58869934, -0.73639280, 0.13566722, -0.64287752, -0.16133372, 0.43975300, 0.18294036, 0.19757861, 0.00000000, 0.00000000, 0.00000000, 0.00000000
1, 0.3875, 144, -1.46126091, -0.60878110, -0.32726124, -62.07976151, 17.26720619, 239.95126343, -29.31891251, 21.83572006, -71.99649048, 70.80133820, -65.11499023, -73.03629303, -0.73765248, 0.13136330, -0.64308232, -0.15829602, 0.55410719, 0.21138552, 0.18888368, 0.00000000, 0.00000000, 0.00000000, 0.00000000
1, 0.3900, 145, -1.57530272, -0.62758821, -0.30409813, -54.94168472, 22.47108078, 234.75300598, -29.31891251, 21.83572006, -71.99649048, 70.12006378, -65.64928436, -72.43798828, -0.73892564, 0.12726140, -0.64319474, -0.15522237, 0.66426420, 0.23983836, 0.16388801, 0.00000000, 0.00000000, 0.00000000, 0.00000000
1, 0.3925, 146, -1.68149388, -0.64903826, -0.25679642, -48.89588165, 29.01225853, 227.54817200, -29.58199310, 25.16807938, -71.14878845, 69.40568542, -66.15795898, -71.78933716, -0.74022943, 0.12337678, -0.64318484, -0.15215769, 0.76683098, 0.27065307, 0.11461347, 0.00000000, 0.00000000, 0.00000000, 0.00000000
1, 0.3950, 147, -1.78336740, -0.67707354, -0.19457407, -43.87498093, 37.44420242, 218.41400146, -29.58199310, 25.16807938, -71.14878845, 68.64869690, -66.63431549, -71.08294678, -0.74158895, 0.11972626, -0.64301455, -0.14914352, 0.86537522, 0.30769527, 0.05017817, 0.00000000, 0.00000000, 0.00000000, 0.00000000
1, 0.3975, 148, -1.87866914, -0.71281648, -0.13284980, -40.51493073, 46.57175446, 208.10571289, -29.58199310, 25.16807938, -71.14878845, 67.84336853, -67.07437897, -70.31727600, -0.74301696, 0.11630163, -0.64266562, -0.14622167, 0.95765823, 0.35204512, -0.01405997, 0.00000000, 0.00000000, 0.00000000, 0.00000000
1, 0.4000, 149, -1.96990991, -0.73763376, -0.07732083, -38.37165070, 54.87461853, 196.67117310, -29.58199310, 25.16807938, -71.14878845, 66.99695587, -67.47618866, -69.50325775, -0.74449688, 0.11309657, -0.64215374, -0.14342970, 1.04618967, 0.38502583, -0.07237466, 0.00000000, 0.00000000, 0.00000000, 0.00000000
1, 0.4025, 150, -2.06210160, -0.74483514, -0.03325119, -36.72412491, 62.08366394, 184.03445435, -29.58199310, 25.16807938, -71.14878845, 66.11332703, -67.83652496, -68.64717865, -0.74602628, 0.11011510, -0.64147860, -0.14080055, 1.13599074, 0.39989671, -0.11950868, 0.00000000, 0.00000000, 0.00000000, 0.00000000
1, 0.4050, 151, -2.14824057, -0.75124812, 0.00922955, -33.99484634, 68.63346100, 169.91651917, -29.28968048, 27.91581345, -71.55802155, 65.20829773, -68.15287018, -67.76269531, -0.74758422, 0.10739376, -0.64065999, -0.13834475, 1.22006083, 0.41341257, -0.16527243, 0.00000000, 0.00000000, 0.00000000, 0.00000000
1, 0.4075, 152, -2.21887636, -0.75923485, 0.04639997, -29.75333977, 74.78963470, 155.29870605, -29.28968048, 27.91581345, -71.55802155, 64.29327393, -68.42425537, -66.85787964, -0.74916255, 0.10496285, -0.63970959, -0.13605152, 1.28894448, 0.42789960, -0.20590904, 0.00000000, 0.00000000, 0.00000000, 0.00000000
1, 0.4100, 153, -2.26953006, -0.76365912, 0.08162884, -25.14439774, 80.04358673, 141.01716614, -29.28968048, 27.91581345, -71.55802155, 63.37815475, -68.65245056, -65.94212341, -0.75075096, 0.10282072, -0.63864553, -0.13391347, 1.33814073, 0.43822712, -0.24474843, 0.00000000, 0.00000000, 0.00000000, 0.00000000
1, 0.4125, 154, -2.30504966, -0.75982463, 0.12025248, -20.44689178, 83.35405731, 127.05867767, -29.28968048, 27.91581345, -71.55802155, 62.47828293, -68.84046173, -65.03144073, -0.75232524, 0.10095847, -0.63750201, -0.13192956, 1.37247109, 0.43970686, -0.28704977, 0.00000000, 0.00000000, 0.00000000, 0.00000000
1, 0.4150, 155, -2.32652426, -0.74761891, 0.16264142, -16.02006721, 84.77925110, 113.91479492, -29.28968048, 27.91581345, -71.55802155, 61.60632706, -68.99264526, -64.13984680, -0.75386393, 0.09935473, -0.63631225, -0.13009530, 1.39299011, 0.43225673, -0.33311221, 0.00000000, 0.00000000, 0.00000000, 0.00000000
1, 0.4175, 156, -2.34130812, -0.73220938, 0.21533032, -12.43991184, 84.45005798, 101.72904968, -28.76351929, 29.72814941, -72.61034393, 60.77180481, -69.11376190, -63.27956772, -0.75534868, 0.09797718, -0.63510585, -0.12841128, 1.40701842, 0.42108613, -0.38941252, 0.00000000, 0.00000000, 0.00000000, 0.00000000
1, 0.4200, 157, -2.35285187, -0.70877463, 0.26666906, -9.70653343, 82.36759186, 90.43152618, -28.76351929, 29.72814941, -72.61034393, 59.98369980, -69.20849609, -62.46227264, -0.75676131, 0.09679463, -0.63391238, -0.12687902, 1.41797400, 0.40141356, -0.44424105, 0.00000000, 0.00000000, 0.00000000, 0.00000000
1, 0.4225, 158, -2.36297822, -0.68082154, 0.31196421, -8.24415302, 77.63213348, 79.73165131, -28.76351929, 29.72814941, -72.61034393, 59.25523758, -69.28231049, -61.70529556, -0.75807083, 0.09577046, -0.63277429, -0.12551236, 1.42764354, 0.37677795, -0.49281365, 0.00000000, 0.00000000, 0.00000000, 0.00000000
1, 0.4250, 159, -2.37226272, -0.65199012, 0.35629347, -8.34317780, 70.58716583, 69.63500214, -28.76351929, 29.72814941, -72.61034393, 58.59620667, -69.34033966, -61.02313614, -0.75925159, 0.09486422, -0.63172805, -0.12432810, 1.43657017, 0.35085541, -0.54013437, 0.00000000, 0.00000000, 0.00000000, 0.00000000
1, 0.4275, 160, -2.38189173, -0.62929380, 0.39967415, -9.28641796, 61.44604492, 60.21210098, -28.76351929, 29.72814941, -72.61034393, 58.01591492, -69.38769531, -60.42786407, -0.76027972, 0.09404705, -0.63080859, -0.12333134, 1.44590807, 0.33069283, -0.58614576, 0.00000000, 0.00000000, 0.00000000, 0.00000000
1, 0.4300, 161, -2.39394522, -0.60721636, 0.44256154, -10.86525249, 51.04270554, 51.40362549, -29.05583191, 29.28968048, -73.54574585, 57.51903152, -69.42835999, -59.92609406, -0.76114172, 0.09329662, -0.63003737, -0.12252335, 1.45771182, 0.31080389, -0.63125885, 0.00000000, 0.00000000, 0.00000000, 0.00000000
1, 0.4325, 162, -2.41099668, -0.58843857, 0.47379988, -11.85812092, 39.39297104, 42.92602539, -29.05583191, 29.28968048, -73.54574585, 57.11374283, -69.46549225, -59.52490616, -0.76182151, 0.09261491, -0.62943840, -0.12189326, 1.47453594, 0.29387802, -0.66425967, 0.00000000, 0.00000000, 0.00000000, 0.00000000
1, 0.4350, 163, -2.43241858, -0.56929159, 0.50358647, -12.18684292, 25.79964638, 35.11930084, -29.05583191, 29.28968048, -73.54574585, 56.81085968, -69.50393677, -59.23404312, -0.76229340, 0.09199867, -0.62904781, -0.12142473, 1.49572253, 0.27626771, -0.69525677, 0.00000000, 0.00000000, 0.00000000, 0.00000000
1, 0.4375, 164, -2.46037388, -0.55410123, 0.53283703, -12.93305969, 10.60433292, 27.64192390, -29.05583191, 29.28968048, -73.54574585, 56.61757660, -69.54714966, -59.06224442, -0.76253790, 0.09143230, -0.62889242, -0.12112119, 1.52341413, 0.26231569, -0.72510606, 0.00000000, 0.00000000, 0.00000000, 0.00000000
1, 0.4400, 165, -2.49452901, -0.54335010, 0.55237877, -14.89617920, -5.22443438, 20.08999252, -29.05583191, 29.28968048, -73.54574585, 56.53532028, -69.59626007, -59.01420212, -0.76254898, 0.09089502, -0.62897998, -0.12100176, 1.55727041, 0.25251102, -0.74462354, 0.00000000, 0.00000000, 0.00000000, 0.00000000
1, 0.4425, 166, -2.53899240, -0.54110664, 0.56166899, -18.21394348, -22.44631386, 12.24383831, -28.29582024, 31.01432228, -74.45191193, 56.57041168, -69.65271759, -59.10021973, -0.76230931, 0.09036472, -0.62932944, -0.12109250, 1.60139072, 0.25092089, -0.75322676, 0.00000000, 0.00000000, 0.00000000, 0.00000000
1, 0.4450, 167, -2.59413552, -0.54274005, 0.56346768, -22.17340851, -40.36112213, 4.04068518, -28.29582024, 31.01432228, -74.45191193, 56.72765732, -69.71662903, -59.32699585, -0.76180911, 0.08983382, -0.62994975, -0.12140924, 1.65614653, 0.25290427, -0.75365442, 0.00000000, 0.00000000, 0.00000000, 0.00000000
1, 0.4475, 168, -2.66441154, -0.55421430, 0.56074756, -26.19763756, -59.23604202, -4.80473661, -28.29582024, 31.01432228, -74.45191193, 57.01617432, -69.78752136, -59.70432281, -0.76103276, 0.08930746, -0.63085479, -0.12196510, 1.72599447, 0.26439801, -0.74884069, 0.00000000, 0.00000000, 0.00000000, 0.00000000
1, 0.4500, 169, -2.74607754, -0.57678229, 0.54773861, -29.64002037, -79.06172943, -14.50423527, -28.29582024, 31.01432228, -74.45191193, 57.45161819, -69.86527252, -60.24679565, -0.75995308, 0.08880261, -0.63207167, -0.12276439, 1.80719233, 0.28661901, -0.73293775, 0.00000000, 0.00000000, 0.00000000, 0.00000000
1, 0.4525, 170, -2.84081697, -0.60492796, 0.49911156, -32.00484085, -98.99715424, -25.39772415, -28.29582024, 31.01432228, -74.45191193, 58.03630066, -69.94367981, -60.95458984, -0.75857985, 0.08835681, -0.63357633, -0.12381826, 1.90146160, 0.31398004, -0.68065989, 0.00000000, 0.00000000, 0.00000000, 0.00000000
1, 0.4550, 171, -3.04092073, -0.63528180, 0.47632799, -32.57233429, -119.17185974, -37.62919235, -29.02659988, 30.48816109, -72.58111572, 58.78671265, -70.01961517, -61.83990479, -0.75689065, 0.08801561, -0.63538551, -0.12512046, 2.10111165, 0.34304604, -0.65340519, 0.00000000, 0.00000000, 0.00000000, 0.00000000
1, 0.4575, 172, -3.15010214, -0.70051384, 0.45465717, -31.79535294, -139.62075806, -66.86421967, -29.02659988, 30.48816109, -72.58111572, 59.76840210, -70.05425262, -62.96893692, -0.75482929, 0.08803580, -0.63747203, -0.12693267, 2.21008635, 0.40577781, -0.62641543, 0.00000000, 0.00000000, 0.00000000, 0.00000000
1, 0.4600, 173, -3.15010214, -0.70051384, 0.45465717, -31.79535294, -139.62075806, -66.86421967, -29.02659988, 30.48816109, -72.58111572, 60.75339890, -70.08222961, -64.10123444, -0.75275892, 0.08805496, -0.63955098, -0.12874337, 2.20991969, 0.40326965, -0.62109876, 0.00000000, 0.00000000, 0.00000000, 0.00000000
1, 0.4625, 174, -3.38671613, -0.78788882, 0.40113702, -33.17366409, -204.50747681, -103.40902710, -29.02659988, 30.48816109, -72.58111572, 62.25167084, -70.09897614, -65.78294373, -0.74966919, 0.08837747, -0.64260948, -0.13129568, 2.44643426, 0.48663741, -0.55962187, 0.00000000, 0.00000000, 0.00000000, 0.00000000
1, 0.4650, 175, -3.38671613, -0.78788882, 0.40113702, -33.17366409, -204.50747681, -103.40902710, -29.02659988, 30.48816109, -72.58111572, 63.75144196, -70.10074615, -67.46614075, -0.74656028, 0.08869772, -0.64565164, -0.13384464, 2.44642377, 0.48261836, -0.55167037, 0.00000000, 0.00000000, 0.00000000, 0.00000000
1, 0.4675, 176, -3.65578723, -0.86631685, 0.33034608, -37.05554199, -246.17938232, -146.69480896, -30.57585526, 30.78047371, -70.27185059, 65.62539673, -70.03233337, -69.55803680, -0.74272120, 0.08943988, -0.64925635, -0.13722955, 2.71590185, 0.55526471, -0.47127959, 0.00000000, 0.00000000, 0.00000000, 0.00000000
1, 0.4700, 177, -3.78603244, -0.89648902, 0.28298268, -39.07718658, -266.51376343, -171.65278625, -30.57585526, 30.78047371, -70.27185059, 67.67202759, -69.90242004, -71.84040833, -0.73849058, 0.09043797, -0.65310711, -0.14108109, 2.84692430, 0.57863188, -0.41352701, 0.00000000, 0.00000000, 0.00000000, 0.00000000
1, 0.4725, 178, -3.90453553, -0.93017560, 0.22723202, -40.81711197, -286.53228760, -198.91542053, -30.57585526, 30.78047371, -70.27185059, 69.87437439, -69.69818115, -74.29577637, -0.73385465, 0.09173001, -0.65718615, -0.14542855, 2.96665812, 0.60439551, -0.34661606, 0.00000000, 0.00000000, 0.00000000, 0.00000000
1, 0.4750, 179, -3.94836307, -0.96584076, 0.17068715, -40.54629517, -306.63858032, -228.21408081, -30.57585526, 30.78047371, -70.27185059, 72.21491241, -69.40753937, -76.90180969, -0.72878963, 0.09337671, -0.66148692, -0.15027201, 3.01225829, 0.63093102, -0.27811897, 0.00000000, 0.00000000, 0.00000000, 0.00000000
1, 0.4775, 180, -3.94845486, -0.98715383, 0.12197087, -37.33853149, -325.72610474, -258.90731812, -30.57585526, 30.78047371, -70.27185059, 74.66399384, -69.01911163, -79.62117767, -0.72328615, 0.09544761, -0.66598833, -0.15558451, 3.01475596, 0.64184713, -0.21666965, 0.00000000, 0.00000000, 0.00000000, 0.00000000
1, 0.4800, 181, -3.94865704, -0.98560524, 0.06492878, -31.55439568, -343.65963745, -290.99212646, -31.65740967, 28.67582512, -67.61180878, 77.18603516, -68.52230072, -82.41134644, -0.71733606, 0.09800644, -0.67066556, -0.16134253, 3.01809692, 0.62858438, -0.14613365, 0.00000000, 0.00000000, 0.00000000, 0.00000000
1, 0.4825, 182, -3.94894862, -0.96200705, 0.00480291, -23.62426567, -360.51580811, -324.25839233, -31.65740967, 28.67582512, -67.61180878, 79.74238586, -67.90811920, -85.22779083, -0.71093041, 0.10110650, -0.67549324, -0.16752423, 3.02236676, 0.59192467, -0.07177567, 0.00000000, 0.00000000, 0.00000000, 0.00000000
1, 0.4850, 183, -3.94928503, -0.92017519, -0.04942264, -14.83456993, -377.14303589, -358.36355591, -31.65740967, 28.67582512, -67.61180878, 82.29651642, -67.17019653, -88.03157043, -0.70405000, 0.10477246, -0.68045419, -0.17412177, 3.02762365, 0.53568131, -0.00258698, 0.00000000, 0.00000000, 0.00000000, 0.00000000
1, 0.4875, 184, -3.94967580, -0.85655910, -0.09671593, -6.98227692, -393.49548340, -392.88159180, -31.65740967, 28.67582512, -67.61180878, 84.80963135, -66.30444336, -90.78591919, -0.69668078, 0.10899481, -0.68552327, -0.18114620, 3.03398228, 0.45633012, 0.06035999, 0.00000000, 0.00000000, 0.00000000, 0.00000000
1, 0.4900, 185, -3.95010257, -0.77426118, -0.13504714, -1.14764857, -409.24578857, -427.24502563, -31.65740967, 28.67582512, -67.61180878, 87.24349213, -65.30960846, -93.45709229, -0.68881708, 0.11374036, -0.69066548, -0.18861461, 3.04152536, 0.35702950, 0.11495830, 0.00000000, 0.00000000, 0.00000000, 0.00000000
1, 0.4925, 186, -3.95058036, -0.67624801, -0.17191567, 2.52346182, -424.12045288, -461.30972290, -32.24203491, 25.43115997, -62.99327469, 89.56510925, -64.18611908, -96.01682281, -0.68045837, 0.11897294, -0.69583964, -0.19654304, 3.05036831, 0.24081099, 0.16861020, 0.00000000, 0.00000000, 0.00000000, 0.00000000
1, 0.4950, 187, -3.95113134, -0.55346614, -0.20425014, 3.87981272, -437.09448242, -494.29196167, -32.24203491, 25.43115997, -62.99327469, 91.74404907, -62.93779755, -98.43921661, -0.67162377, 0.12464719, -0.70098948, -0.20493533, 3.06061935, 0.09871927, 0.21809645, 0.00000000, 0.00000000, 0.00000000, 0.00000000
1, 0.4975, 188, -3.95175505, -0.40858117, -0.23477973, 2.98830795, -447.54623413, -526.04370117, -32.24203491, 25.43115997, -62.99327469, 93.75618744, -61.57038498, -100.70410156, -0.66234410, 0.13072005, -0.70604986, -0.21379030, 3.07235360, -0.06647532, 0.26596791, 0.00000000, 0.00000000, 0.00000000, 0.00000000
1, 0.5000, 189, -3.95243192, -0.24785306, -0.26421127, -0.07306521, -456.04425049, -555.59368896, -32.24203491, 25.43115997, -62.99327469, 95.58898163, -60.09379578, -102.80310822, -0.65265054, 0.13712856, -0.71096730, -0.22308889, 3.08559036, -0.24835883, 0.31276864, 0.00000000, 0.00000000, 0.00000000, 0.00000000
1, 0.5025, 190, -3.95320439, -0.05293548, -0.28590956, -6.10010529, -462.10034180, -583.63220215, -32.24203491, 25.43115997, -62.99327469, 97.23317719, -58.51478195, -104.73271942, -0.64257586, 0.14382634, -0.71567684, -0.23284538, 3.10042953, -0.46518725, 0.35166815, 0.00000000, 0.00000000, 0.00000000, 0.00000000
1, 0.5050, 191, -3.95409656, 0.16342619, -0.31998786, -14.00867653, -466.46163940, -610.45251465, -33.08974075, 20.54954720, -58.43320465, 98.68948364, -56.84180832, -106.49724579, -0.63214678, 0.15077057, -0.72012830, -0.24305145, 3.11693406, -0.70410097, 0.40262094, 0.00000000, 0.00000000, 0.00000000, 0.00000000
1, 0.5075, 192, -3.92145252, 0.39296290, -0.38778183, -21.85645103, -469.31549072, -636.20355225, -33.08974075, 20.54954720, -58.43320465, 99.96722412, -55.08216858, -108.10488129, -0.62137938, 0.15795229, -0.72428441, -0.25367483, 3.10148001, -0.95672512, 0.48685569, 0.00000000, 0.00000000, 0.00000000, 0.00000000
1, 0.5100, 193, -3.76250839, 0.64227796, -0.50844318, -28.69716454, -471.97750854, -660.34661865, -33.08974075, 20.54954720, -58.43320465, 101.08424377, -53.24359512, -109.57103729, -0.61026990, 0.16535963, -0.72813404, -0.26466510, 2.96132159, -1.22952938, 0.62348926, 0.00000000, 0.00000000, 0.00000000, 0.00000000
1, 0.5125, 194, -3.52961802, 0.83909345, -0.64790052, -34.15676498, -475.73455811, -680.10284424, -33.08974075, 20.54954720, -58.43320465, 102.06467438, -51.33938599, -110.91804504, -0.59881061, 0.17293325, -0.73169708, -0.27593353, 2.74875832, -1.45000148, 0.77847356, 0.00000000, 0.00000000, 0.00000000, 0.00000000
1, 0.5150, 195, -3.22330117, 0.98826283, -0.77589571, -38.73719788, -479.90771484, -690.49554443, -33.08974075, 20.54954720, -58.43320465, 102.93107605, -49.39454269, -112.16856384, -0.58704019, 0.18053022, -0.73500443, -0.28733468, 2.46409249, -1.62260485, 0.92154121, 0.00000000, 0.00000000, 0.00000000, 0.00000000
1, 0.5175, 196, -2.87367749, 1.10382438, -0.92978889, -43.59962463, -483.06460571, -690.80218506, -31.97895241, 13.65097904, -52.79158020, 103.69824982, -47.43594742, -113.33975983, -0.57503790, 0.18798903, -0.73807198, -0.29873303, 2.13715649, -1.76099920, 1.08996928, 0.00000000, 0.00000000, 0.00000000, 0.00000000
1, 0.5200, 197, -2.51157808, 1.15948796, -1.04319966, -51.63595963, -483.47821045, -682.45867920, -31.97895241, 13.65097904, -52.79158020, 104.36783600, -45.48778915, -114.44133759, -0.56292266, 0.19514669, -0.74087811, -0.31005722, 1.79847717, -1.83862209, 1.21716487, 0.00000000, 0.00000000, 0.00000000, 0.00000000
1, 0.5225, 198, -2.16321421, 1.17645717, -1.13737881, -67.30838013, -480.37362671, -664.53063965, -31.97895241, 13.65097904, -52.79158020, 104.92931366, -43.57689667, -115.48173523, -0.55086088, 0.20177928, -0.74337339, -0.32129973, 1.47388721, -1.87645364, 1.32401669, 0.00000000, 0.00000000, 0.00000000, 0.00000000
1, 0.5250, 199, -1.85033369, 1.19190645, -1.18812835, -89.45633698, -475.11380005, -637.73980713, -31.97895241, 13.65097904, -52.79158020, 105.37790680, -41.72761917, -116.47375488, -0.53899688, 0.20768495, -0.74553519, -0.33245566, 1.18474376, -1.91150475, 1.38603997, 0.00000000, 0.00000000, 0.00000000, 0.00000000
1, 0.5275, 200, -1.57490265, 1.22096527, -1.22258508, -116.42598724, -468.51196289, -606.64862061, -31.97895241, 13.65097904, -52.79158020, 105.71096039, -39.95270920, -117.42798615, -0.52742845, 0.21275447, -0.74734443, -0.34355664, 0.93274796, -1.95890141, 1.43016148, 0.00000000, 0.00000000, 0.00000000, 0.00000000
1, 0.5300, 201, -1.32812881, 1.25760496, -1.26346564, -144.48933411, -460.30468750, -577.00079346, -28.67582512, 6.95702982, -49.13768005, 105.92996979, -38.25123596, -118.34784698, -0.51619977, 0.21702027, -0.74877900, -0.35464060, 0.70901811, -2.01275158, 1.47900128, 0.00000000, 0.00000000, 0.00000000, 0.00000000
1, 0.5725, 202, 0.79295051, 0.59731388, -0.97144687, -92.84104919, -83.06273651, -356.77859497, -17.33411217, -8.62320995, -43.46682358, 103.46743774, -16.36777687, -125.17335510, -0.38144892, 0.27954224, -0.73046768, -0.49271691, -1.07475257, -1.53040397, 1.19490075, 0.00000000, 0.00000000, 0.00000000, 0.00000000
1, 0.5750, 203, 0.86692625, 0.58578014, -1.00941169, -90.00360107, -76.06366730, -342.14541626, -17.33411217, -8.62320995, -43.46682358, 103.23885345, -15.49163723, -125.16032410, -0.37709606, 0.28341934, -0.72802389, -0.49744695, -1.13402414, -1.52383959, 1.23010230, 0.00000000, 0.00000000, 0.00000000, 0.00000000
1, 0.5775, 204, 0.94671994, 0.56700659, -1.05507553, -85.98755646, -72.32228851, -326.65106201, -17.33411217, -8.62320995, -43.46682358, 103.02134705, -14.65530300, -125.15055847, -0.37292337, 0.28710708, -0.72564530, -0.50193292, -1.19972312, -1.50959504, 1.27305865, 0.00000000, 0.00000000, 0.00000000, 0.00000000
1, 0.5800, 205, 1.03091693, 0.53609908, -1.10191178, -79.93635559, -71.07224274, -310.07806396, -17.33411217, -8.62320995, -43.46682358, 102.82147217, -13.86002159, -125.15039062, -0.36889398, 0.29057989, -0.72338742, -0.50615335, -1.27046752, -1.48277533, 1.31736386, 0.00000000, 0.00000000, 0.00000000, 0.00000000
1, 0.5825, 206, 1.10685885, 0.50023550, -1.15736091, -71.27622223, -72.16857910, -292.49633789, -14.64484024, -11.10786343, -43.05758667, 102.64682770, -13.10700512, -125.16561127, -0.36496866, 0.29381880, -0.72131044, -0.51007813, -1.33362913, -1.45055413, 1.37059736, 0.00000000, 0.00000000, 0.00000000, 0.00000000
1, 0.5850, 207, 1.18183148, 0.46969730, -1.20722747, -60.30244064, -74.77434540, -274.45306396, -14.64484024, -11.10786343, -43.05758667, 102.50355530, -12.39664078, -125.19951630, -0.36111706, 0.29681951, -0.71946102, -0.51368135, -1.39650941, -1.42321789, 1.41867936, 0.00000000, 0.00000000, 0.00000000, 0.00000000
1, 0.5875, 208, 1.25164604, 0.43443084, -1.24615812, -47.88499069, -77.99862671, -255.86338806, -14.64484024, -11.10786343, -43.05758667, 102.39506531, -11.72999573, -125.25321198, -0.35732919, 0.29957896, -0.71786946, -0.51694477, -1.45494592, -1.39072514, 1.45632625, 0.00000000, 0.00000000, 0.00000000, 0.00000000
1, 0.5900, 209, 1.32086420, 0.40554371, -1.27570283, -35.46221924, -81.72073364, -236.44117737, -14.64484024, -11.10786343, -43.05758667, 102.32117462, -11.10886765, -125.32774353, -0.35360911, 0.30207932, -0.71655035, -0.51986957, -1.51353848, -1.36420524, 1.48509562, 0.00000000, 0.00000000, 0.00000000, 0.00000000
1, 0.5925, 210, 1.38309777, 0.38370490, -1.28447413, -22.02355766, -86.54454041, -216.82740784, -14.64484024, -11.10786343, -43.05758667, 102.28443909, -10.53314781, -125.42537689, -0.34993753, 0.30431345, -0.71552986, -0.52245009, -1.56590199, -1.34434366, 1.49365342, 0.00000000, 0.00000000, 0.00000000, 0.00000000
1, 0.5950, 211, 1.42314410, 0.36480200, -1.25625134, -7.49287653, -92.95623779, -196.88905334, -12.36480522, -14.58637810, -43.37912750, 102.28787231, -10.00275421, -125.54968262, -0.34628814, 0.30626681, -0.71483892, -0.52468145, -1.59684002, -1.32704067, 1.46583951, 0.00000000, 0.00000000, 0.00000000, 0.00000000
1, 0.5975, 212, 1.44211674, 0.36498913, -1.20276475, 6.75882006, -100.40808868, -177.03381348, -12.36480522, -14.58637810, -43.37912750, 102.33071899, -9.51683331, -125.70280457, -0.34264725, 0.30792639, -0.71448493, -0.52657920, -1.60745454, -1.32847524, 1.41337943, 0.00000000, 0.00000000, 0.00000000, 0.00000000
1, 0.6000, 213, 1.46075034, 0.36967844, -1.13747776, 20.29387856, -108.26887512, -158.02105713, -12.36480522, -14.58637810, -43.37912750, 102.40302277, -9.06285667, -125.88333893, -0.33897439, 0.30933303, -0.71439874, -0.52824605, -1.61826825, -1.33414721, 1.34958267, 0.00000000, 0.00000000, 0.00000000, 0.00000000
1, 0.6025, 214, 1.46581304, 0.34677333, -1.06403148, 32.39114380, -116.20465851, -139.49420166, -12.36480522, -14.58637810, -43.37912750, 102.51650238, -8.65965462, -126.09428406, -0.33533433, 0.31040499, -0.71468425, -0.52955276, -1.61637819, -1.31187832, 1.27828133, 0.00000000, 0.00000000, 0.00000000, 0.00000000
1, 0.6050, 215, 1.45261323, 0.31331822, -0.98948747, 43.19716263, -124.43278503, -120.75726318, -12.36480522, -14.58637810, -43.37912750, 102.65994263, -8.29722309, -126.33471680, -0.33170399, 0.31116390, -0.71527040, -0.53060126, -1.59692144, -1.27879357, 1.20635700, 0.00000000, 0.00000000, 0.00000000, 0.00000000
1, 0.6075, 216, 1.41456795, 0.28711978, -0.90598321, 52.41627502, -132.04922485, -102.21666718, -10.43554497, -14.26483440, -41.44986725, 102.82895660, -7.97515011, -126.60303497, -0.32810193, 0.31160745, -0.71613365, -0.53141558, -1.55331147, -1.25272691, 1.12587643, 0.00000000, 0.00000000, 0.00000000, 0.00000000
1, 0.6100, 217, 1.35860467, 0.26826012, -0.80839932, 59.53679276, -138.21138000, -84.90842438, -10.43554497, -14.26483440, -41.44986725, 103.01760101, -7.69098091, -126.89505768, -0.32455114, 0.31175560, -0.71723092, -0.53202903, -1.49243486, -1.23379660, 1.03162277, 0.00000000, 0.00000000, 0.00000000, 0.00000000
1, 0.6125, 218, 1.27991438, 0.24201606, -0.70037305, 64.05345154, -142.64920044, -68.68731689, -10.43554497, -14.26483440, -41.44986725, 103.21868896, -7.44280338, -127.20610046, -0.32108390, 0.31162605, -0.71851230, -0.53247964, -1.40945101, -1.20731866, 0.92711449, 0.00000000, 0.00000000, 0.00000000, 0.00000000
1, 0.6150, 219, 1.18909574, 0.21174461, -0.59837121, 66.25053406, -144.94674683, -53.40877533, -10.43554497, -14.26483440, -41.44986725, 103.42575073, -7.22938299, -127.53060150, -0.31773880, 0.31124139, -0.71992928, -0.53279704, -1.31493771, -1.17668402, 0.82870996, 0.00000000, 0.00000000, 0.00000000, 0.00000000
1, 0.6175, 220, 1.09944010, 0.18482909, -0.50719595, 66.20535278, -145.91888428, -40.06325531, -10.43554497, -14.26483440, -41.44986725, 103.63274384, -7.04666376, -127.86443329, -0.31452969, 0.31063142, -0.72143364, -0.53302228, -1.22211766, -1.14931512, 0.74111265, 0.00000000, 0.00000000, 0.00000000, 0.00000000
1, 0.6200, 221, 1.01385343, 0.16977553, -0.41890234, 64.27539062, -145.41598511, -29.13946915, -9.23706532, -14.29406548, -40.66062546, 103.83448029, -6.88959265, -128.20278931, -0.31146455, 0.30983815, -0.72297692, -0.53319275, -1.13380992, -1.13375485, 0.65629297, 0.00000000, 0.00000000, 0.00000000, 0.00000000
1, 0.6225, 222, 0.93349826, 0.15636453, -0.32338470, 60.66836548, -142.46788025, -20.55501175, -9.23706532, -14.29406548, -40.66062546, 104.02603149, -6.75397253, -128.53848267, -0.30856642, 0.30891556, -0.72450757, -0.53333545, -1.05110443, -1.11981773, 0.56406486, 0.00000000, 0.00000000, 0.00000000, 0.00000000
1, 0.6250, 223, 0.86861145, 0.13437474, -0.25063661, 55.88938141, -137.15338135, -13.40337563, -9.23706532, -14.29406548, -40.66062546, 104.20383453, -6.63785315, -128.86506653, -0.30586430, 0.30790621, -0.72598702, -0.53346384, -0.98420483, -1.09730542, 0.49436340, 0.00000000, 0.00000000, 0.00000000, 0.00000000
1, 0.6275, 224, 0.81420231, 0.10859213, -0.20167431, 49.44625473, -130.66629028, -6.92980337, -9.23706532, -14.29406548, -40.66062546, 104.36351776, -6.54047251, -129.17944336, -0.30338055, 0.30682373, -0.72738451, -0.53360218, -0.92810726, -1.07102871, 0.44813228, 0.00000000, 0.00000000, 0.00000000, 0.00000000
1, 0.6300, 225, 0.77099746, 0.07210925, -0.14874406, 41.98923111, -123.35118103, -0.86132818, -9.23706532, -14.29406548, -40.66062546, 104.50246429, -6.46152592, -129.47947693, -0.30113077, 0.30567810, -0.72868103, -0.53376508, -0.88353366, -1.03409648, 0.39757442, 0.00000000, 0.00000000, 0.00000000, 0.00000000
1, 0.6325, 226, 0.73394841, 0.03891164, -0.10005303, 34.67015076, -115.27858734, 5.56666756, -7.68781042, -14.64484024, -39.98830795, 104.62097931, -6.40253544, -129.76368713, -0.29913071, 0.30447394, -0.72987670, -0.53394425, -0.84546125, -1.00049365, 0.35090172, 0.00000000, 0.00000000, 0.00000000, 0.00000000
1, 0.6350, 227, 0.69636339, 0.01040187, -0.06130933, 28.70811272, -106.21732330, 11.58399391, -7.68781042, -14.64484024, -39.98830795, 104.72231293, -6.36329174, -130.02957153, -0.29738271, 0.30323863, -0.73097908, -0.53411549, -0.80719554, -0.97161222, 0.31387761, 0.00000000, 0.00000000, 0.00000000, 0.00000000
1, 0.6375, 228, 0.65874296, -0.01784255, -0.03258169, 24.39869308, -97.26042175, 16.40552139, -7.68781042, -14.64484024, -39.98830795, 104.81064606, -6.34097815, -130.27665710, -0.29586068, 0.30200124, -0.73200119, -0.53426206, -0.76918811, -0.94301909, 0.28664273, 0.00000000, 0.00000000, 0.00000000, 0.00000000
1, 0.6400, 229, 0.62475580, -0.04290737, -0.00149106, 22.32223892, -89.02674103, 20.09090042, -7.68781042, -14.64484024, -39.98830795, 104.89178467, -6.33248377, -130.50607300, -0.29452544, 0.30078617, -0.73296690, -0.53436136, -0.73505372, -0.91760945, 0.25691664, 0.00000000, 0.00000000, 0.00000000, 0.00000000
1, 0.6425, 230, 0.59634972, -0.06602827, 0.03303942, 21.61545372, -81.39026642, 22.92442513, -7.68781042, -14.64484024, -39.98830795, 104.96928406, -6.33543539, -130.71873474, -0.29334879, 0.29960907, -0.73389095, -0.53440148, -0.70669872, -0.89413649, 0.22368366, 0.00000000, 0.00000000, 0.00000000, 0.00000000
1, 0.6450, 231, 0.56839961, -0.07594558, 0.07290340, 22.13981247, -74.91280365, 25.31857109, -7.95089149, -13.82636642, -39.69599533, 105.04655457, -6.34807968, -130.91723633, -0.29229939, 0.29847151, -0.73479283, -0.53437376, -0.67896795, -0.88384855, 0.18510807, 0.00000000, 0.00000000, 0.00000000, 0.00000000
1, 0.6475, 232, 0.54505253, -0.07977059, 0.11810572, 22.82120514, -70.02647400, 27.69062424, -7.95089149, -13.82636642, -39.69599533, 105.12445068, -6.36935759, -131.10543823, -0.29135063, 0.29735634, -0.73568469, -0.53428656, -0.65599006, -0.87963235, 0.14119977, 0.00000000, 0.00000000, 0.00000000, 0.00000000
1, 0.6500, 233, 0.52342069, -0.08281417, 0.16942634, 22.79379272, -66.32609558, 30.18879509, -7.95089149, -13.82636642, -39.69599533, 105.21318817, -6.35529232, -131.28869629, -0.29017937, 0.29647428, -0.73654735, -0.53422552, -0.63411415, -0.87621206, 0.09137169, 0.00000000, 0.00000000, 0.00000000, 0.00000000
1, 0.6525, 234, 0.49127245, -0.09088111, 0.25930601, 21.91712761, -64.16359711, 33.08852768, -7.95089149, -13.82636642, -39.69599533, 105.28770447, -6.39290810, -131.46632385, -0.28939179, 0.29533309, -0.73742205, -0.53407812, -0.60261834, -0.86773479, 0.00271988, 0.00000000, 0.00000000, 0.00000000, 0.00000000
1, 0.6550, 235, 0.47815412, -0.12101620, 0.29064289, 20.69113350, -63.12103653, 36.53373718, -7.95089149, -13.82636642, -39.69599533, 105.35925293, -6.43929529, -131.64375305, -0.28866830, 0.29414010, -0.73829603, -0.53392059, -0.59030455, -0.83718455, -0.02744403, 0.00000000, 0.00000000, 0.00000000, 0.00000000
1, 0.6575, 236, 0.45977733, -0.14190173, 0.31822178, 19.83592033, -62.76196671, 44.02499008, -8.71090317, -14.29406548, -38.93598175, 105.42931366, -6.50375319, -131.82540894, -0.28804249, 0.29282442, -0.73920375, -0.53372580, -0.57304561, -0.81585425, -0.05388519, 0.00000000, 0.00000000, 0.00000000, 0.00000000
1, 0.6600, 237, 0.45977733, -0.14190173, 0.31822178, 19.83592033, -62.76196671, 44.02499008, -8.71090317, -14.29406548, -38.93598175, 105.49959564, -6.56799650, -132.00715637, -0.28741583, 0.29150787, -0.74010932, -0.53352940, -0.57415968, -0.81540650, -0.05274466, 0.00000000, 0.00000000, 0.00000000, 0.00000000
1, 0.6625, 238, 0.41765121, -0.18184319, 0.36400944, 21.08790779, -65.14854431, 51.19236374, -8.71090317, -14.29406548, -38.93598175, 105.57447815, -6.64767408, -132.19964600, -0.28682515, 0.29005468, -0.74108756, -0.53328127, -0.53341484, -0.77496290, -0.09732454, 0.00000000, 0.00000000, 0.00000000, 0.00000000
1, 0.6650, 239, 0.41765121, -0.18184319, 0.36400944, 21.08790779, -65.14854431, 51.19236374, -8.71090317, -14.29406548, -38.93598175, 105.64961243, -6.72709751, -132.39225769, -0.28623348, 0.28860053, -0.74206322, -0.53303134, -0.53479159, -0.77445686, -0.09611341, 0.00000000, 0.00000000, 0.00000000, 0.00000000
1, 0.6675, 240, 0.35544732, -0.19672988, 0.41364327, 24.86415672, -68.80076599, 56.65576553, -8.71090317, -14.29406548, -38.93598175, 105.73599243, -6.81693649, -132.59757996, -0.28562135, 0.28703788, -0.74313718, -0.53270710, -0.47414476, -0.75898731, -0.14435604, 0.00000000, 0.00000000, 0.00000000, 0.00000000
1, 0.6700, 241, 0.32319435, -0.20569502, 0.43703398, 27.32495499, -70.47038269, 58.58340073, -7.86319780, -13.15404797, -38.29289627, 105.82949829, -6.90995216, -132.80847168, -0.28498790, 0.28543872, -0.74425912, -0.53233922, -0.44350359, -0.74939471, -0.16624022, 0.00000000, 0.00000000, 0.00000000, 0.00000000
1, 0.6725, 242, 0.29323176, -0.21556669, 0.45576262, 29.27995300, -71.86447906, 60.30661392, -7.86319780, -13.15404797, -38.29289627, 105.92882538, -7.00580835, -133.02412415, -0.28433841, 0.28380626, -0.74541986, -0.53193516, -0.41520178, -0.73885745, -0.18336925, 0.00000000, 0.00000000, 0.00000000, 0.00000000
1, 0.6750, 243, 0.26592612, -0.22659773, 0.47043559, 30.72915649, -72.98302460, 61.82538605, -7.86319780, -13.15404797, -38.29289627, 106.03262329, -7.10416985, -133.24374390, -0.28367805, 0.28214374, -0.74661016, -0.53150249, -0.38959977, -0.72712857, -0.19637188, 0.00000000, 0.00000000, 0.00000000, 0.00000000
1, 0.6775, 244, 0.23809445, -0.23407140, 0.47685462, 31.96124268, -73.96179962, 63.13695526, -7.86319780, -13.15404797, -38.29289627, 106.14031219, -7.20460033, -133.46688843, -0.28300801, 0.28045478, -0.74782532, -0.53104508, -0.36350730, -0.71892846, -0.20105943, 0.00000000, 0.00000000, 0.00000000, 0.00000000
1, 0.6800, 245, 0.21948445, -0.24590087, 0.48135513, 32.97080231, -74.17549133, 64.10991669, -7.86319780, -13.15404797, -38.29289627, 106.25109863, -7.30679226, -133.69146729, -0.28233811, 0.27875230, -0.74905562, -0.53056383, -0.34666657, -0.70634764, -0.20378074, 0.00000000, 0.00000000, 0.00000000, 0.00000000
1, 0.6825, 246, 0.20643242, -0.25605613, 0.48232618, 33.54309845, -73.69863129, 64.95379639, -8.36012840, -13.73867321, -37.06518555, 106.36368561, -7.41090822, -133.91574097, -0.28168088, 0.27704370, -0.75029093, -0.53006244, -0.33541676, -0.69542187, -0.20294678, 0.00000000, 0.00000000, 0.00000000, 0.00000000
1, 0.6850, 247, 0.19859776, -0.26511741, 0.48586941, 33.82199478, -72.53099823, 65.73805237, -8.36012840, -13.73867321, -37.06518555, 106.47711182, -7.51728821, -134.13801575, -0.28104872, 0.27533606, -0.75152320, -0.52954191, -0.32942307, -0.68557417, -0.20467541, 0.00000000, 0.00000000, 0.00000000, 0.00000000
1, 0.6875, 248, 0.19220085, -0.26974192, 0.48911104, 33.51776505, -70.39939880, 66.53730011, -8.36012840, -13.73867321, -37.06518555, 106.58963013, -7.62666607, -134.35597229, -0.28046110, 0.27363667, -0.75273991, -0.52900594, -0.32491857, -0.68015468, -0.20612246, 0.00000000, 0.00000000, 0.00000000, 0.00000000
1, 0.6900, 249, 0.18469903, -0.26922667, 0.49365559, 32.63034439, -67.36651611, 66.93103027, -8.36012840, -13.73867321, -37.06518555, 106.69943237, -7.73874521, -134.56716919, -0.27993178, 0.27195901, -0.75392646, -0.52846146, -0.31935534, -0.67987555, -0.20892221, 0.00000000, 0.00000000, 0.00000000, 0.00000000
1, 0.6925, 250, 0.17706566, -0.26673150, 0.49725321, 31.52266693, -63.78171158, 67.33295441, -8.36012840, -13.73867321, -37.06518555, 106.80579376, -7.85396957, -134.77024841, -0.27947131, 0.27030805, -0.75507718, -0.52790898, -0.31371441, -0.68157923, -0.21083736, 0.00000000, 0.00000000, 0.00000000, 0.00000000
1, 0.6950, 251, 0.17041434, -0.26331282, 0.50538415, 29.47533798, -59.58251190, 67.74628448, -8.65244102, -12.33557415, -36.62671661, 106.90612030, -7.97286797, -134.96374512, -0.27909562, 0.26868495, -0.75617784, -0.52736062, -0.30911851, -0.68422163, -0.21739128, 0.00000000, 0.00000000, 0.00000000, 0.00000000
1, 0.6975, 252, 0.16352107, -0.26001817, 0.51351368, 26.84996414, -55.04140854, 68.09620667, -8.65244102, -12.33557415, -36.62671661, 106.99884033, -8.09559250, -135.14682007, -0.27881312, 0.26709124, -0.75721955, -0.52682459, -0.30434608, -0.68676269, -0.22407547, 0.00000000, 0.00000000, 0.00000000, 0.00000000
1, 0.7000, 253, 0.16351315, -0.25574586, 0.51565653, 24.22527695, -50.57062531, 68.51510620, -8.65244102, -12.33557415, -36.62671661, 107.11560822, -8.20590782, -135.32566833, -0.27841845, 0.26564363, -0.75833827, -0.52615565, -0.30624411, -0.69018221, -0.22436965, 0.00000000, 0.00000000, 0.00000000, 0.00000000
1, 0.7025, 254, 0.16762096, -0.24961416, 0.51806372, 21.31348991, -46.10692596, 69.21461487, -8.65244102, -12.33557415, -36.62671661, 107.19232178, -8.33724880, -135.48854065, -0.27832612, 0.26409826, -0.75926286, -0.52564895, -0.31262034, -0.69560802, -0.22560808, 0.00000000, 0.00000000, 0.00000000, 0.00000000
1, 0.7050, 255, 0.17534713, -0.23091345, 0.52823216, 18.33460045, -42.13625717, 70.39724731, -8.65244102, -12.33557415, -36.62671661, 107.26073456, -8.47415161, -135.64294434, -0.27832931, 0.26255980, -0.76013327, -0.52515960, -0.32271028, -0.71362531, -0.23475170, 0.00000000, 0.00000000, 0.00000000, 0.00000000
1, 0.7075, 256, 0.18659562, -0.20762129, 0.54518455, 15.00360775, -38.94044113, 72.19996643, -8.82782841, -14.11867905, -36.59748459, 107.32027435, -8.61755943, -135.79118347, -0.27842435, 0.26100698, -0.76095396, -0.52469456, -0.33643395, -0.73625684, -0.25083348, 0.00000000, 0.00000000, 0.00000000, 0.00000000
1, 0.7100, 257, 0.20247926, -0.18975568, 0.56485492, 10.53023624, -36.53126526, 74.90496826, -8.82782841, -14.11867905, -36.59748459, 107.36846924, -8.76908112, -135.93586731, -0.27861488, 0.25940877, -0.76172167, -0.52427191, -0.35493180, -0.75349331, -0.26982945, 0.00000000, 0.00000000, 0.00000000, 0.00000000
1, 0.7125, 258, 0.22019272, -0.18101473, 0.57839417, 5.27962065, -35.53399658, 78.85229492, -8.82782841, -14.11867905, -36.59748459, 107.40403748, -8.93065929, -136.08126831, -0.27889588, 0.25772360, -0.76244295, -0.52390504, -0.37543181, -0.76163691, -0.28291294, 0.00000000, 0.00000000, 0.00000000, 0.00000000
1, 0.7150, 259, 0.23862541, -0.17332794, 0.58849430, -0.54126763, -35.03445053, 83.28433990, -8.82782841, -14.11867905, -36.59748459, 107.42583466, -9.10311317, -136.22898865, -0.27926755, 0.25593406, -0.76311678, -0.52360326, -0.39683706, -0.76876092, -0.29279569, 0.00000000, 0.00000000, 0.00000000, 0.00000000
1, 0.7175, 260, 0.24901493, -0.16296013, 0.58899832, -5.71033096, -35.02231979, 88.26714325, -8.82782841, -14.11867905, -36.59748459, 107.43579102, -9.28742027, -136.38056946, -0.27972403, 0.25402912, -0.76375610, -0.52335489, -0.41040200, -0.77858692, -0.29329002, 0.00000000, 0.00000000, 0.00000000, 0.00000000
1, 0.7200, 261, 0.25646645, -0.14909664, 0.58479619, -10.65982151, -35.49172974, 93.17275238, -9.00321579, -11.72171879, -36.56825638, 107.43466949, -9.48306656, -136.53709412, -0.28025487, 0.25200573, -0.76436549, -0.52315933, -0.42122251, -0.79192507, -0.28927311, 0.00000000, 0.00000000, 0.00000000, 0.00000000
1, 0.7225, 262, 0.26316991, -0.13006389, 0.57994157, -15.46471214, -36.09498215, 97.86626434, -9.00321579, -11.72171879, -36.56825638, 107.42292786, -9.68946934, -136.69874573, -0.28085423, 0.24986653, -0.76494575, -0.52301592, -0.43147808, -0.81044573, -0.28479102, 0.00000000, 0.00000000, 0.00000000, 0.00000000
1, 0.7250, 263, 0.27131441, -0.11278638, 0.56931382, -20.05180550, -36.90832520, 102.83598328, -9.00321579, -11.72171879, -36.56825638, 107.40128326, -9.90716743, -136.86614990, -0.28152019, 0.24760564, -0.76550144, -0.52292013, -0.44336680, -0.82721806, -0.27471194, 0.00000000, 0.00000000, 0.00000000, 0.00000000
1, 0.7275, 264, 0.28624430, -0.10128139, 0.55186290, -24.42062378, -37.99990082, 108.01102448, -9.00321579, -11.72171879, -36.56825638, 107.37050629, -10.13647079, -137.04016113, -0.28224877, 0.24521746, -0.76603717, -0.52286816, -0.46223760, -0.83821613, -0.25797385, 0.00000000, 0.00000000, 0.00000000, 0.00000000
1, 0.7300, 265, 0.30214629, -0.09353694, 0.53117537, -28.49645233, -39.65147400, 113.73703003, -9.00321579, -11.72171879, -36.56825638, 107.33173370, -10.37830734, -137.22248840, -0.28303495, 0.24268800, -0.76656199, -0.52285433, -0.48229301, -0.84544182, -0.23814616, 0.00000000, 0.00000000, 0.00000000, 0.00000000
1, 0.7325, 266, 0.31572425, -0.08559693, 0.50463009, -32.06627274, -41.58079910, 119.80733490, -9.61707115, -11.80941200, -36.24671173, 107.28650665, -10.63333607, -137.41406250, -0.28387484, 0.24001110, -0.76708418, -0.52286881, -0.50024736, -0.85283792, -0.21258335, 0.00000000, 0.00000000, 0.00000000, 0.00000000
1, 0.7350, 267, 0.32386100, -0.07676854, 0.48299745, -34.76883316, -43.99331284, 126.28787231, -9.61707115, -11.80941200, -36.24671173, 107.23736572, -10.90219593, -137.61631775, -0.28475997, 0.23717940, -0.76761776, -0.52289653, -0.51299411, -0.86107934, -0.19201544, 0.00000000, 0.00000000, 0.00000000, 0.00000000
1, 0.7375, 268, 0.32580915, -0.06430771, 0.46326604, -37.03932190, -46.47323608, 132.90599060, -9.61707115, -11.80941200, -36.24671173, 107.18562317, -11.18519974, -137.82957458, -0.28568804, 0.23419218, -0.76816773, -0.52292895, -0.51979005, -0.87289834, -0.17341074, 0.00000000, 0.00000000, 0.00000000, 0.00000000
1, 0.7400, 269, 0.32351792, -0.04824536, 0.44824195, -38.73590088, -48.80931091, 139.52418518, -9.61707115, -11.80941200, -36.24671173, 107.13277435, -11.48248672, -138.05343628, -0.28665817, 0.23105438, -0.76873869, -0.52295500, -0.52258635, -0.88825351, -0.15955150, 0.00000000, 0.00000000, 0.00000000, 0.00000000
1, 0.7425, 270, 0.32194355, -0.02789687, 0.43462619, -40.29040527, -51.00008011, 145.79412842, -9.61707115, -11.80941200, -36.24671173, 107.07922363, -11.79334545, -138.28732300, -0.28766754, 0.22777398, -0.76932812, -0.52297282, -0.52632582, -0.90782493, -0.14713262, 0.00000000, 0.00000000, 0.00000000, 0.00000000
1, 0.7450, 271, 0.32572651, -0.01440475, 0.42077228, -42.28312302, -52.36402130, 152.07676697, -9.61707115, -11.80941200, -36.24671173, 107.02362823, -12.11843491, -138.52919006, -0.28873199, 0.22435722, -0.76992500, -0.52298486, -0.53565961, -0.92047167, -0.13453090, 0.00000000, 0.00000000, 0.00000000, 0.00000000
1, 0.7475, 272, 0.33814853, -0.01263541, 0.40415508, -44.70843124, -53.52867889, 158.64328003, -11.13709450, -10.58170128, -36.30517197, 106.96498871, -12.45861435, -138.77882385, -0.28985968, 0.22079849, -0.77052313, -0.52299476, -0.55388284, -0.92132485, -0.11923937, 0.00000000, 0.00000000, 0.00000000, 0.00000000
1, 0.7500, 273, 0.34946424, -0.00232825, 0.39194775, -47.35094452, -54.42608261, 165.70368958, -11.13709450, -10.58170128, -36.30517197, 106.92247772, -12.79653358, -139.04136658, -0.29088053, 0.21719961, -0.77119911, -0.52293867, -0.57095367, -0.93060952, -0.10810037, 0.00000000, 0.00000000, 0.00000000, 0.00000000
1, 0.7525, 274, 0.34940079, 0.02712634, 0.40412974, -50.13784790, -55.19185638, 173.11607361, -11.13709450, -10.58170128, -36.30517197, 106.85656738, -13.17056656, -139.30587769, -0.29216206, 0.21333730, -0.77179110, -0.52294075, -0.57725143, -0.95898652, -0.12178114, 0.00000000, 0.00000000, 0.00000000, 0.00000000
1, 0.7550, 275, 0.36529213, 0.13875540, 0.41790369, -53.35891724, -55.61545944, 180.53450012, -11.13709450, -10.58170128, -36.30517197, 106.78582764, -13.56235504, -139.57691956, -0.29353094, 0.20932095, -0.77237004, -0.52294248, -0.59979552, -1.06944990, -0.13716224, 0.00000000, 0.00000000, 0.00000000, 0.00000000
1, 0.7575, 276, 0.36529213, 0.13875540, 0.41790369, -53.35891724, -55.61545944, 180.53450012, -11.13709450, -10.58170128, -36.30517197, 106.71689606, -13.95446587, -139.84791565, -0.29489446, 0.20530076, -0.77293479, -0.52293462, -0.60644275, -1.06822824, -0.13875043, 0.00000000, 0.00000000, 0.00000000, 0.00000000
1, 0.7600, 277, 0.46392685, 0.20176975, 0.40192533, -70.78631592, -56.63238907, 204.07752991, -12.10172462, -11.13709450, -36.91902924, 106.61116028, -14.40262985, -140.13870239, -0.29658127, 0.20075557, -0.77339649, -0.52306277, -0.71266115, -1.12992013, -0.12503549, 0.00000000, 0.00000000, 0.00000000, 0.00000000
1, 0.7625, 278, 0.46392685, 0.20176975, 0.40192533, -70.78631592, -56.63238907, 204.07752991, -12.10172462, -11.13709450, -36.91902924, 106.50756073, -14.85131359, -140.42924500, -0.29826102, 0.19620557, -0.77383977, -0.52317846, -0.72023833, -1.12852335, -0.12727600, 0.00000000, 0.00000000, 0.00000000, 0.00000000
1, 0.7650, 279, 0.58313215, 0.21546924, 0.35924402, -83.90126038, -57.85742188, 225.78523254, -12.10172462, -11.13709450, -36.91902924, 106.37836456, -15.35174656, -140.73841858, -0.30021611, 0.19118461, -0.77421379, -0.52336574, -0.84787613, -1.14065659, -0.08732684, 0.00000000, 0.00000000, 0.00000000, 0.00000000
1, 0.7675, 280, 0.62771559, 0.24764688, 0.35011393, -89.18994904, -59.42474747, 238.65023804, -12.10172462, -11.13709450, -36.91902924, 106.24207306, -15.88263321, -141.06044006, -0.30230445, 0.18588795, -0.77456743, -0.52354854, -0.90138340, -1.17108381, -0.08109601, 0.00000000, 0.00000000, 0.00000000, 0.00000000
1, 0.7700, 281, 0.64640743, 0.31779689, 0.35958120, -94.04212952, -61.48480225, 252.27648926, -12.10172462, -11.13709450, -36.91902924, 106.10066986, -16.44555473, -141.39701843, -0.30452281, 0.18029907, -0.77490777, -0.52371371, -0.92951143, -1.23926687, -0.09360155, 0.00000000, 0.00000000, 0.00000000, 0.00000000
1, 0.7725, 282, 0.66076761, 0.40160650, 0.39260620, -100.04273224, -63.82594681, 265.48303223, -13.12481689, -9.03244686, -37.32826614, 105.95181274, -17.03940773, -141.74850464, -0.30686444, 0.17441344, -0.77521741, -0.52388173, -0.95379686, -1.32089353, -0.12984195, 0.00000000, 0.00000000, 0.00000000, 0.00000000
1, 0.7750, 283, 0.69930387, 0.45853561, 0.41319478, -108.05814362, -65.91114807, 278.83950806, -13.12481689, -9.03244686, -37.32826614, 105.79076385, -17.66486549, -142.11428833, -0.30934095, 0.16821705, -0.77546740, -0.52408165, -1.00275278, -1.37542510, -0.15390152, 0.00000000, 0.00000000, 0.00000000, 0.00000000
1, 0.7775, 284, 0.76366520, 0.48478973, 0.40344471, -117.07781219, -68.09035492, 293.17718506, -13.12481689, -9.03244686, -37.32826614, 105.61573792, -18.32437134, -142.49516296, -0.31196302, 0.16168439, -0.77564508, -0.52432066, -1.07806134, -1.39904213, -0.14791064, 0.00000000, 0.00000000, 0.00000000, 0.00000000
1, 0.7800, 285, 0.83998418, 0.49709967, 0.36669543, -125.37312317, -70.63650513, 309.25595093, -13.12481689, -9.03244686, -37.32826614, 105.42973328, -19.02203560, -142.89315796, -0.31473878, 0.15478562, -0.77576107, -0.52457213, -1.16591609, -1.40841913, -0.11516808, 0.00000000, 0.00000000, 0.00000000, 0.00000000
1, 0.7825, 286, 0.89927846, 0.51900083, 0.32426235, -131.43850708, -73.17832947, 326.37667847, -13.12481689, -9.03244686, -37.32826614, 105.23918152, -19.76053810, -143.30892944, -0.31766954, 0.14751732, -0.77583754, -0.52478653, -1.23736835, -1.42702281, -0.07689199, 0.00000000, 0.00000000, 0.00000000, 0.00000000
1, 0.7850, 287, 0.92270046, 0.57632893, 0.28598887, -134.33914185, -75.90049744, 343.62442017, -14.73253441, -8.12627888, -37.88365936, 105.05291748, -20.54016304, -143.74311829, -0.32074055, 0.13989633, -0.77590525, -0.52490544, -1.27356446, -1.48062360, -0.04278916, 0.00000000, 0.00000000, 0.00000000, 0.00000000
1, 0.7875, 288, 0.93216240, 0.64179063, 0.25043461, -135.37519836, -78.30740356, 359.54153442, -14.73253441, -8.12627888, -37.88365936, 104.87574005, -21.35796738, -144.19413757, -0.32393363, 0.13196127, -0.77597183, -0.52490091, -1.29635596, -1.54190063, -0.01134251, 0.00000000, 0.00000000, 0.00000000, 0.00000000
1, 0.7900, 289, 0.95077336, 0.69664091, 0.22056463, -136.27182007, -80.28873444, 374.90441895, -14.73253441, -8.12627888, -37.88365936, 104.70826721, -22.21290016, -144.66082764, -0.32724708, 0.12372714, -0.77602756, -0.52476889, -1.32882273, -1.59209025, 0.01448958, 0.00000000, 0.00000000, 0.00000000, 0.00000000
1, 0.7925, 290, 0.97850215, 0.74137038, 0.18783271, -137.02159119, -82.55337524, 390.75256348, -14.73253441, -8.12627888, -37.88365936, 104.55209351, -23.10595703, -145.14457703, -0.33067888, 0.11518332, -0.77607000, -0.52449954, -1.37093496, -1.63164473, 0.04327087, 0.00000000, 0.00000000, 0.00000000, 0.00000000
1, 0.7950, 291, 1.00517380, 0.77008730, 0.14825915, -137.62141418, -85.38704681, 407.64157104, -14.73253441, -8.12627888, -37.88365936, 104.40940857, -24.03928947, -145.64810181, -0.33422825, 0.10630667, -0.77610010, -0.52407932, -1.41253686, -1.65462506, 0.07900566, 0.00000000, 0.00000000, 0.00000000, 0.00000000
1, 0.7975, 292, 1.00047839, 0.80932587, 0.12797371, -137.64947510, -87.73838043, 425.02487183, -17.24641991, -5.52470016, -38.05904770, 104.28237152, -25.01433945, -146.17103577, -0.33790481, 0.09709854, -0.77611339, -0.52348852, -1.42332339, -1.68751884, 0.09558655, 0.00000000, 0.00000000, 0.00000000, 0.00000000
1, 0.8000, 293, 0.94095564, 0.89752495, 0.14814205, -137.18301392, -89.17283630, 441.64965820, -17.24641991, -5.52470016, -38.05904770, 104.17673492, -26.02434540, -146.71343994, -0.34166446, 0.08761398, -0.77612120, -0.52270925, -1.37970853, -1.76876569, 0.07193872, 0.00000000, 0.00000000, 0.00000000, 0.00000000
1, 0.8025, 294, 0.86639571, 1.00155044, 0.18300280, -137.88166809, -89.13439178, 456.40979004, -17.24641991, -5.52470016, -38.05904770, 104.07917786, -27.07643127, -147.26632690, -0.34560421, 0.07783733, -0.77604234, -0.52178305, -1.32157445, -1.86520410, 0.03359776, 0.00000000, 0.00000000, 0.00000000, 0.00000000
1, 0.8050, 295, 0.82273448, 1.06674838, 0.20914081, -141.60047913, -89.17580414, 470.05972290, -17.24641991, -5.52470016, -38.05904770, 103.98744965, -28.16241646, -147.83201599, -0.34966505, 0.06779212, -0.77585500, -0.52075672, -1.29470682, -1.92222095, 0.00395276, 0.00000000, 0.00000000, 0.00000000, 0.00000000
1, 0.8075, 296, 0.82241738, 1.06631505, 0.22220996, -147.32983398, -89.38438416, 484.34338379, -17.24641991, -5.52470016, -38.05904770, 103.89785767, -29.28371620, -148.41198730, -0.35385042, 0.05745083, -0.77553058, -0.51965517, -1.31155181, -1.91299009, -0.01271330, 0.00000000, 0.00000000, 0.00000000, 0.00000000
1, 0.8100, 297, 0.81959981, 1.03031182, 0.21139996, -151.55891418, -88.15453339, 500.53002930, -19.29260445, -3.85852075, -37.12364578, 103.81390381, -30.44581032, -149.00424194, -0.35819948, 0.04680959, -0.77506846, -0.51843125, -1.32632303, -1.86748600, -0.00555556, 0.00000000, 0.00000000, 0.00000000, 0.00000000
1, 0.8125, 298, 0.79999155, 0.99933118, 0.18774831, -151.99436951, -84.88780212, 517.15155029, -19.29260445, -3.85852075, -37.12364578, 103.74337769, -31.65089226, -149.60420227, -0.36274278, 0.03591444, -0.77448601, -0.51701009, -1.32473361, -1.82622063, 0.01448830, 0.00000000, 0.00000000, 0.00000000, 0.00000000
1, 0.8150, 299, 0.76400900, 0.99072772, 0.18451317, -147.76927185, -80.31685638, 532.86633301, -19.29260445, -3.85852075, -37.12364578, 103.69668579, -32.89737320, -150.20855713, -0.36748457, 0.02483359, -0.77381486, -0.51531452, -1.30714500, -1.80649602, 0.01429900, 0.00000000, 0.00000000, 0.00000000, 0.00000000
1, 0.8175, 300, 0.69665211, 1.01267314, 0.18413168, -140.45994568, -75.07852173, 547.60083008, -19.29260445, -3.85852075, -37.12364578, 103.68118286, -34.18301773, -150.81600952, -0.37242073, 0.01361776, -0.77307457, -0.51329648, -1.25849032, -1.81644940, 0.01152753, 0.00000000, 0.00000000, 0.00000000, 0.00000000
1, 0.8200, 301, 0.58375651, 1.08236170, 0.17455418, -133.22134399, -70.16947937, 561.21221924, -19.29260445, -3.85852075, -37.12364578, 103.69793701, -35.50461197, -151.42820740, -0.37753120, 0.00228404, -0.77225751, -0.51096332, -1.16452479, -1.87327671, 0.01821937, 0.00000000, 0.00000000, 0.00000000, 0.00000000
1, 0.8225, 302, 0.44996539, 1.17963243, 0.21554269, -129.07745361, -65.12336731, 573.08685303, -21.36802101, 0.29231218, -38.84828949, 103.73941803, -36.85778809, -152.04505920, -0.38279703, -0.00915969, -0.77131927, -0.50837874, -1.04979610, -1.95686448, -0.02550794, 0.00000000, 0.00000000, 0.00000000, 0.00000000
1, 0.8250, 303, 0.33524767, 1.27826512, 0.30526978, -129.55126953, -58.23323822, 583.88275146, -21.36802101, 0.29231218, -38.84828949, 103.79122162, -38.24085999, -152.66145325, -0.38823378, -0.02071103, -0.77018595, -0.50562757, -0.95421612, -2.04103804, -0.11803918, 0.00000000, 0.00000000, 0.00000000, 0.00000000
1, 0.8275, 304, 0.27252233, 1.34895182, 0.36281341, -134.71661377, -49.09971619, 594.58441162, -21.36802101, 0.29231218, -38.84828949, 103.83766937, -39.65494156, -153.27105713, -0.39387172, -0.03238153, -0.76877862, -0.50278813, -0.91068470, -2.09650898, -0.17867513, 0.00000000, 0.00000000, 0.00000000, 0.00000000
1, 0.8300, 305, 0.27256885, 1.33992767, 0.33175918, -143.32810974, -40.23140717, 606.90240479, -21.36802101, 0.29231218, -38.84828949, 103.87137604, -41.10390472, -153.87612915, -0.39971575, -0.04422939, -0.76705217, -0.49990210, -0.92999530, -2.07147121, -0.15110873, 0.00000000, 0.00000000, 0.00000000, 0.00000000
1, 0.8325, 306, 0.30374622, 1.28231502, 0.24368657, -150.63928223, -31.67079544, 621.93957520, -21.36802101, 0.29231218, -38.84828949, 103.89779663, -42.59423065, -154.48014832, -0.40578371, -0.05629077, -0.76501054, -0.49692026, -0.98054790, -1.99692976, -0.06686699, 0.00000000, 0.00000000, 0.00000000, 0.00000000
1, 0.8350, 307, 0.28507558, 1.28359139, 0.17384739, -152.28594971, -21.07562447, 638.66448975, -24.49576187, 5.46623802, -38.87752151, 103.92796326, -44.13129425, -155.07849121, -0.41212645, -0.06851965, -0.76268357, -0.49373135, -0.98138034, -1.98023534, -0.00108506, 0.00000000, 0.00000000, 0.00000000, 0.00000000
1, 0.8375, 308, 0.18362775, 1.39856374, 0.15638588, -148.92486572, -7.78154755, 654.08074951, -24.49576187, 5.46623802, -38.87752151, 103.96755981, -45.71349335, -155.66174316, -0.41877490, -0.08081719, -0.76009017, -0.49026418, -0.89948475, -2.07616544, 0.01215119, 0.00000000, 0.00000000, 0.00000000, 0.00000000
1, 0.8400, 309, 0.08696494, 1.53138411, 0.13894342, -146.14219666, 5.35217667, 666.13940430, -24.49576187, 5.46623802, -38.87752151, 104.01312256, -47.33256912, -156.22795105, -0.42568386, -0.09313115, -0.75721991, -0.48655719, -0.82226455, -2.18895674, 0.02516735, 0.00000000, 0.00000000, 0.00000000, 0.00000000
1, 0.8425, 310, 0.04794797, 1.59343815, 0.10245870, -147.71170044, 14.37420273, 677.24761963, -24.49576187, 5.46623802, -38.87752151, 104.06356812, -48.98373032, -156.79130554, -0.43276075, -0.10552641, -0.75405622, -0.48268181, -0.80247110, -2.23004150, 0.05701427, 0.00000000, 0.00000000, 0.00000000, 0.00000000
1, 0.8450, 311, 0.02320153, 1.61933994, 0.05390474, -152.54321289, 18.34948349, 690.25616455, -24.49576187, 5.46623802, -38.87752151, 104.12728119, -50.66847992, -157.37371826, -0.43992776, -0.11811470, -0.75059807, -0.47865957, -0.79669309, -2.23397803, 0.10079239, 0.00000000, 0.00000000, 0.00000000, 0.00000000
1, 0.8475, 312, -0.03779879, 1.67370450, 0.03225541, -156.98941040, 19.52895355, 705.11401367, -27.36042023, 9.93861389, -39.43291473, 104.21839905, -52.38943863, -157.99133301, -0.44715080, -0.13094784, -0.74686140, -0.47445422, -0.75437808, -2.26530075, 0.11764328, 0.00000000, 0.00000000, 0.00000000, 0.00000000
1, 0.8500, 313, -0.14095035, 1.74689150, 0.00462629, -160.79106140, 20.99251938, 719.90368652, -27.36042023, 9.93861389, -39.43291473, 104.34694672, -54.15372086, -158.65129089, -0.45446059, -0.14405224, -0.74283522, -0.47001112, -0.66964066, -2.31424141, 0.14048414, 0.00000000, 0.00000000, 0.00000000, 0.00000000
1, 0.8525, 314, -0.34077752, 1.72914708, -0.10069252, -164.59458923, 22.53850555, 733.85510254, -27.36042023, 9.93861389, -39.43291473, 104.51145935, -55.94439316, -159.35395813, -0.46177134, -0.15732481, -0.73851818, -0.46541068, -0.48771673, -2.27127934, 0.24101281, 0.00000000, 0.00000000, 0.00000000, 0.00000000
1, 0.8550, 315, -0.51789355, 1.51211977, -0.22462775, -166.64309692, 22.52690887, 759.80938721, -27.36042023, 9.93861389, -39.43291473, 104.74643707, -57.79643250, -160.13191223, -0.46920958, -0.17099226, -0.73388547, -0.46045205, -0.32826626, -2.02749562, 0.36028022, 0.00000000, 0.00000000, 0.00000000, 0.00000000
1, 0.8575, 316, -0.51789355, 1.51211977, -0.22462775, -166.64309692, 22.52690887, 759.80938721, -27.36042023, 9.93861389, -39.43291473, 105.04399109, -59.64645767, -160.96740723, -0.47651264, -0.18461044, -0.72904140, -0.45536080, -0.34502995, -2.00013542, 0.35579240, 0.00000000, 0.00000000, 0.00000000, 0.00000000
1, 0.8600, 317, -1.04096889, 1.35485029, -0.46180519, -138.20538330, 28.01207733, 771.33093262, -28.99736977, 17.21718788, -39.75445557, 105.47893524, -61.52508926, -161.86325073, -0.48399344, -0.19800813, -0.72416461, -0.44958732, 0.16194314, -1.81433153, 0.58904839, 0.00000000, 0.00000000, 0.00000000, 0.00000000
1, 0.8625, 318, -1.04096889, 1.35485029, -0.46180519, -138.20538330, 28.01207733, 771.33093262, -28.99736977, 17.21718788, -39.75445557, 106.00762177, -63.39995575, -162.84899902, -0.49133268, -0.21134789, -0.71907598, -0.44368234, 0.14681518, -1.78524864, 0.58528155, 0.00000000, 0.00000000, 0.00000000, 0.00000000
1, 0.8650, 319, -1.66865563, 1.18387568, -0.64252305, -104.86226654, 36.25687027, 760.00347900, -28.99736977, 17.21718788, -39.75445557, 106.67657471, -65.24859619, -163.88198853, -0.49870452, -0.22401232, -0.71406782, -0.43728659, 0.76052314, -1.58494878, 0.76267183, 0.00000000, 0.00000000, 0.00000000, 0.00000000
1, 0.8675, 320, -1.99372005, 1.09120953, -0.68995541, -90.76316833, 41.77090454, 748.00256348, -28.99736977, 17.21718788, -39.75445557, 107.46597290, -67.06678009, -164.99298096, -0.50597912, -0.23622207, -0.70899576, -0.43070799, 1.07276082, -1.46290314, 0.80690724, 0.00000000, 0.00000000, 0.00000000, 0.00000000
1, 0.8700, 321, -2.31152272, 0.97449768, -0.69536823, -78.64791870, 52.01451111, 733.55426025, -28.99736977, 17.21718788, -39.75445557, 108.35684967, -68.85171509, -166.16604614, -0.51320446, -0.24791574, -0.70381051, -0.42403984, 1.37887311, -1.31692219, 0.80899107, 0.00000000, 0.00000000, 0.00000000, 0.00000000
1, 0.8725, 322, -2.60266995, 0.82051575, -0.70800483, -68.16822052, 68.37141418, 716.95617676, -29.90353584, 25.02192307, -40.77754974, 109.31517029, -70.60323334, -167.36918640, -0.52045339, -0.25902289, -0.69844961, -0.41737708, 1.65942919, -1.13393104, 0.81785440, 0.00000000, 0.00000000, 0.00000000, 0.00000000
1, 0.8750, 323, -2.85623097, 0.67466813, -0.70984054, -59.29948044, 87.99297333, 698.79901123, -29.90353584, 25.02192307, -40.77754974, 110.31585693, -72.32131958, -168.58085632, -0.52775943, -0.26951110, -0.69287926, -0.41079459, 1.90345705, -0.95945638, 0.81527644, 0.00000000, 0.00000000, 0.00000000, 0.00000000
1, 0.8775, 324, -3.06186485, 0.49879387, -0.65944481, -53.76336670, 110.57403564, 679.85363770, -29.90353584, 25.02192307, -40.77754974, 111.32399750, -74.00819397, -169.77442932, -0.53514695, -0.27938426, -0.68704879, -0.40438372, 2.10056400, -0.75543344, 0.75962812, 0.00000000, 0.00000000, 0.00000000, 0.00000000
1, 0.8800, 325, -3.31153417, 0.44618922, -1.01802170, -47.90343857, 128.41662598, 658.53479004, -29.90353584, 25.02192307, -40.77754974, 112.36470032, -75.65573883, -170.97663879, -0.54253119, -0.28865033, -0.68103969, -0.39815313, 2.34271002, -0.67530179, 1.11229002, 0.00000000, 0.00000000, 0.00000000, 0.00000000
1, 0.8825, 326, -3.48152494, 0.33529049, -0.96914822, -39.34528732, 140.44281006, 629.92449951, -29.90353584, 25.02192307, -40.77754974, 113.46887207, -77.24295807, -172.21348572, -0.54978722, -0.29722592, -0.67500162, -0.39212725, 2.50621033, -0.53784144, 1.05708921, 0.00000000, 0.00000000, 0.00000000, 0.00000000
1, 0.8850, 327, -3.62133241, 0.20307907, -0.90734321, -36.46143723, 152.11811829, 602.65692139, -29.61122513, 31.92049026, -42.35603714, 114.63362122, -78.77381134, -173.49731445, -0.55689514, -0.30520859, -0.66889542, -0.38638633, 2.64046621, -0.38004476, 0.98849010, 0.00000000, 0.00000000, 0.00000000, 0.00000000
1, 0.8875, 328, -3.72695398, 0.09561691, -0.85439420, -38.50104141, 159.76428223, 577.65875244, -29.61122513, 31.92049026, -42.35603714, 115.91724396, -80.25022888, -174.90048218, -0.56379128, -0.31273258, -0.66272652, -0.38096097, 2.74139738, -0.24793097, 0.92841041, 0.00000000, 0.00000000, 0.00000000, 0.00000000
1, 0.8900, 329, -3.82698655, -0.00676551, -0.86284417, -38.85659409, 163.75413513, 552.74542236, -29.61122513, 31.92049026, -42.35603714, 117.41889954, -81.66895294, -176.51927185, -0.57044250, -0.31981596, -0.65656602, -0.37581143, 2.83753967, -0.12185124, 0.92956674, 0.00000000, 0.00000000, 0.00000000, 0.00000000
1, 0.8925, 330, -3.91877198, -0.09932275, -0.82472563, -37.16966248, 164.29100037, 528.40808105, -29.61122513, 31.92049026, -42.35603714, 119.30684662, -83.02664185, -178.51783752, -0.57682663, -0.32647657, -0.65048218, -0.37088689, 2.92616940, -0.00654720, 0.88415360, 0.00000000, 0.00000000, 0.00000000, 0.00000000
1, 0.8950, 331, -3.95443749, -0.16264935, -0.75768024, -34.88269806, 162.04399109, 505.28985596, -29.61122513, 31.92049026, -42.35603714, 121.87268829, -84.32044983, 178.81318665, -0.58292705, -0.33275270, -0.64451838, -0.36615264, 2.95934653, 0.07860632, 0.80993682, 0.00000000, 0.00000000, 0.00000000, 0.00000000
1, 0.8975, 332, -3.95397425, -0.20221011, -0.66431701, -31.99973297, 157.49772644, 483.39752197, -28.99736977, 37.09441757, -43.58374786, 125.67910004, -85.54449463, 174.91175842, -0.58873457, -0.33867779, -0.63871109, -0.36157605, 2.95699620, 0.13910744, 0.70962602, 0.00000000, 0.00000000, 0.00000000, 0.00000000
1, 0.9000, 333, -3.95356059, -0.21939816, -0.56217951, -28.30881119, 150.94543457, 461.82501221, -28.99736977, 37.09441757, -43.58374786, 131.92869568, -86.68273163, 168.57714844, -0.59424001, -0.34426546, -0.63309926, -0.35713515, 2.95523667, 0.17634682, 0.60084629, 0.00000000, 0.00000000, 0.00000000, 0.00000000
1, 0.9025, 334, -3.95320725, -0.21586825, -0.45593661, -24.09485626, 141.97787476, 440.00820923, -28.99736977, 37.09441757, -43.58374786, 143.60722351, -87.68999481, 156.82472229, -0.59941781, -0.34953123, -0.62773407, -0.35281190, 2.95402050, 0.19195478, 0.48838094, 0.00000000, 0.00000000, 0.00000000, 0.00000000
1, 0.9350, 335, -3.55127692, 0.14705737, 0.19241025, -15.10343075, -6.58906555, 172.82130432, -26.22040367, 43.93452072, -45.65916443, -89.25892639, -82.06346130, 29.41735458, -0.63634670, -0.39395398, -0.58643609, -0.30976740, 2.56085539, -0.00899219, -0.19419621, 0.00000000, 0.00000000, 0.00000000, 0.00000000
1, 0.9375, 336, -3.52656364, 0.15342984, 0.12414881, -14.18637848, -15.62375832, 157.72863770, -24.43729782, 45.51300812, -46.09763336, -89.59526825, -81.66957092, 29.72129822, -0.63708699, -0.39627212, -0.58519799, -0.30762303, 2.53711462, -0.00855094, -0.12517235, 0.00000000, 0.00000000, 0.00000000, 0.00000000
1, 0.9400, 337, -3.50644445, 0.14955364, 0.04889685, -12.63029671, -23.62153435, 143.13748169, -24.43729782, 45.51300812, -46.09763336, -90.02939606, -81.31192780, 30.12831688, -0.63763362, -0.39843163, -0.58420116, -0.30558908, 2.51791906, 0.00150220, -0.04881938, 0.00000000, 0.00000000, 0.00000000, 0.00000000
1, 0.9425, 338, -3.48753786, 0.13598317, -0.03664344, -10.94050980, -30.37498474, 128.77261353, -24.43729782, 45.51300812, -46.09763336, -90.53433228, -80.98958588, 30.61166191, -0.63800722, -0.40042591, -0.58342898, -0.30367184, 2.49987841, 0.02062425, 0.03810395, 0.00000000, 0.00000000, 0.00000000, 0.00000000
1, 0.9450, 339, -3.47244430, 0.12455800, -0.13595140, -9.33255959, -35.88722610, 114.70459747, -24.43729782, 45.51300812, -46.09763336, -91.08917236, -80.70159912, 31.15001678, -0.63822657, -0.40225220, -0.58286262, -0.30187950, 2.48558474, 0.03698958, 0.13902274, 0.00000000, 0.00000000, 0.00000000, 0.00000000
1, 0.9475, 340, -3.45759869, 0.12127118, -0.22841339, -8.09696102, -39.81365585, 100.86912537, -24.43729782, 45.51300812, -46.09763336, -91.67220306, -80.44710541, 31.72051239, -0.63831180, -0.40390870, -0.58247679, -0.30022773, 2.47146606, 0.04461679, 0.23325612, 0.00000000, 0.00000000, 0.00000000, 0.00000000
1, 0.9500, 341, -3.44696546, 0.11604195, -0.38443914, -8.52720165, -42.10700989, 87.90051270, -23.73575020, 46.59456253, -45.51300812, -92.26498413, -80.22427368, 32.30023956, -0.63827670, -0.40541601, -0.58223104, -0.29874355, 2.46148562, 0.05361780, 0.39114943, 0.00000000, 0.00000000, 0.00000000, 0.00000000
1, 0.9525, 342, -3.43864584, 0.08707321, -0.46261725, -11.05651283, -42.56141281, 75.66310120, -23.73575020, 46.59456253, -45.51300812, -92.85484314, -80.03059387, 32.87091064, -0.63813031, -0.40680775, -0.58208138, -0.29745340, 2.45374608, 0.08583532, 0.47123986, 0.00000000, 0.00000000, 0.00000000, 0.00000000
1, 0.9550, 343, -3.43317795, 0.06998117, -0.54696196, -14.26477242, -41.23604965, 51.14259338, -23.73575020, 46.59456253, -45.51300812, -93.43251801, -79.89727020, 33.42135239, -0.63781124, -0.40792295, -0.58210838, -0.29655623, 2.44868374, 0.10511883, 0.55746460, 0.00000000, 0.00000000, 0.00000000, 0.00000000
1, 0.9575, 344, -3.43317795, 0.06998117, -0.54696196, -14.26477242, -41.23604965, 51.14259338, -23.73575020, 46.59456253, -45.51300812, -93.99551392, -79.76298523, 33.95711517, -0.63749081, -0.40903726, -0.58213419, -0.29565844, 2.44909763, 0.10730802, 0.55934530, 0.00000000, 0.00000000, 0.00000000, 0.00000000
1, 0.9600, 345, -3.40579104, 0.02243579, -0.70440304, -21.06946945, -31.07678413, 26.47386169, -23.73575020, 46.59456253, -45.51300812, -94.44880676, -79.69124603, 34.36424255, -0.63707852, -0.40986675, -0.58219391, -0.29528034, 2.42193341, 0.15597799, 0.71828401, 0.00000000, 0.00000000, 0.00000000, 0.00000000
1, 0.9625, 346, -3.40579104, 0.02243579, -0.70440304, -21.06946945, -31.07678413, 26.47386169, -23.91113663, 47.44226837, -45.04530716, -94.89614868, -79.61894226, 34.76543045, -0.63666564, -0.41069585, -0.58225310, -0.29490197, 2.42216015, 0.15710099, 0.71978247, 0.00000000, 0.00000000, 0.00000000, 0.00000000
1, 0.9650, 347, -3.34757566, -0.01046742, -0.83541071, -20.02952957, -21.95542908, 1.97523654, -23.91113663, 47.44226837, -45.04530716, -95.24215698, -79.60920715, 35.06630707, -0.63621980, -0.41114032, -0.58241135, -0.29493219, 2.36397529, 0.19007495, 0.85188943, 0.00000000, 0.00000000, 0.00000000, 0.00000000
1, 0.9675, 348, -3.30588174, -0.02187571, -0.88406092, -18.28676224, -17.32838058, -9.36795139, -23.91113663, 47.44226837, -45.04530716, -95.53530884, -79.62842560, 35.31785202, -0.63577527, -0.41138655, -0.58261818, -0.29513910, 2.32222128, 0.20106770, 0.90142673, 0.00000000, 0.00000000, 0.00000000, 0.00000000
1, 0.9700, 349, -3.26234484, -0.03458625, -0.92699152, -16.46506882, -13.40622139, -19.88167763, -23.91113663, 47.44226837, -45.04530716, -95.78591919, -79.67458344, 35.53077316, -0.63532895, -0.41144839, -0.58287638, -0.29550377, 2.27853918, 0.21291214, 0.94506085, 0.00000000, 0.00000000, 0.00000000, 0.00000000
1, 0.9725, 350, -3.21674275, -0.04500574, -0.96610326, -14.28059292, -9.76863670, -29.70104218, -23.91113663, 47.44226837, -45.04530716, -95.99742889, -79.74595642, 35.70944977, -0.63488489, -0.41133153, -0.58318621, -0.29600927, 2.23271465, 0.22204505, 0.98470271, 0.00000000, 0.00000000, 0.00000000, 0.00000000
1, 0.9750, 351, -3.17489600, -0.05169507, -1.00075102, -11.58438587, -7.03742504, -38.83497620, -23.91113663, 46.38994217, -45.07453918, -96.18075562, -79.84062195, 35.86629486, -0.63444036, -0.41104320, -0.58355713, -0.29663131, 2.19057560, 0.22705725, 1.01974201, 0.00000000, 0.00000000, 0.00000000, 0.00000000
1, 0.9775, 352, -3.13398695, -0.06251790, -1.03032780, -8.09113789, -5.06044102, -47.98173523, -23.91113663, 46.38994217, -45.07453918, -96.34505463, -79.95848846, 36.01262665, -0.63399249, -0.41057685, -0.58400476, -0.29735288, 2.14930582, 0.23581222, 1.04959774, 0.00000000, 0.00000000, 0.00000000, 0.00000000
1, 0.9800, 353, -3.10127568, -0.07695437, -1.05053401, -4.52312517, -3.42897391, -57.13342667, -23.91113663, 46.38994217, -45.07453918, -96.49568939, -80.09947205, 36.15409088, -0.63353711, -0.40993336, -0.58453417, -0.29816979, 2.11616802, 0.24778947, 1.06998515, 0.00000000, 0.00000000, 0.00000000, 0.00000000
1, 0.9825, 354, -3.07639432, -0.09465490, -1.05989850, -0.66370010, -2.21463990, -66.01197052, -23.91113663, 46.38994217, -45.07453918, -96.63816071, -80.26277924, 36.29701233, -0.63307291, -0.40911472, -0.58515024, -0.29907054, 2.09080100, 0.26265141, 1.07944989, 0.00000000, 0.00000000, 0.00000000, 0.00000000
1, 0.9850, 355, -3.05985284, -0.11322046, -1.06302714, 3.12446475, -1.13396013, -75.24178314, -23.91113663, 46.38994217, -45.07453918, -96.77619171, -80.44922638, 36.44493866, -0.63259453, -0.40811783, -0.58585703, -0.30005932, 2.07371402, 0.27798295, 1.08260429, 0.00000000, 0.00000000, 0.00000000, 0.00000000
1, 0.9875, 356, -3.04440427, -0.13311534, -1.06812906, 7.55753994, -0.02636482, -85.80220795, -24.14498711, 47.14995575, -45.39608383, -96.91136169, -80.66224670, 36.60113525, -0.63209862, -0.40691629, -0.58666980, -0.30114612, 2.05765581, 0.29419127, 1.08765399, 0.00000000, 0.00000000, 0.00000000, 0.00000000
1, 0.9900, 357, -3.02304888, -0.14715536, -1.07669723, 12.77762127, 1.37984693, -97.27037811, -24.14498711, 47.14995575, -45.39608383, -97.04035187, -80.90402985, 36.76415634, -0.63158923, -0.40548515, -0.58759695, -0.30233556, 2.03562450, 0.30405268, 1.09607410, 0.00000000, 0.00000000, 0.00000000, 0.00000000
1, 0.9925, 358, -2.98388553, -0.15101327, -1.07793617, 17.99590683, 2.93112493, -109.15621185, -24.14498711, 47.14995575, -45.39608383, -97.16324615, -81.17575073, 36.93409729, -0.63106412, -0.40381736, -0.58863914, -0.30363399, 1.99572206, 0.30322087, 1.09706521, 0.00000000, 0.00000000, 0.00000000, 0.00000000
1, 0.9950, 359, -2.92429185, -0.15056038, -1.05581141, 22.49947929, 4.05367231, -120.62589264, -24.14498711, 47.14995575, -45.39608383, -97.28976440, -81.47615051, 37.11899567, -0.63051307, -0.40193021, -0.58979303, -0.30504039, 1.93533814, 0.29758364, 1.07461894, 0.00000000, 0.00000000, 0.00000000, 0.00000000
1, 0.9975, 360, -2.85923958, -0.14476781, -1.02701735, 25.64387321, 4.52604294, -131.19071960, -24.14498711, 47.14995575, -45.39608383, -97.43524933, -81.80290985, 37.33084869, -0.62992042, -0.39985755, -0.59104925, -0.30655342, 1.86945617, 0.28614831, 1.04546785, 0.00000000, 0.00000000, 0.00000000, 0.00000000
1, 1.0000, 361, -2.79213953, -0.13527831, -0.99817097, 27.64787865, 3.93812156, -141.06677246, -24.96346092, 46.38994217, -45.89301300, -97.61367035, -82.15484619, 37.58104706, -0.62927282, -0.39762062, -0.59240210, -0.30817732, 1.80149949, 0.27057242, 1.01625609, 0.00000000, 0.00000000, 0.00000000, 0.00000000
1, 1.0025, 362, -2.73301959, -0.12518246, -0.96270025, 29.01812744, 1.87918365, -150.26133728, -24.96346092, 46.38994217, -45.89301300, -97.88314819, -82.52772522, 37.92613602, -0.62853509, -0.39526546, -0.59387159, -0.30987978, 1.74151230, 0.25400132, 0.98053688, 0.00000000, 0.00000000, 0.00000000, 0.00000000
1, 1.0050, 363, -2.68184805, -0.11848283, -0.91577864, 30.03956223, -1.43158519, -159.33184814, -24.96346092, 46.38994217, -45.89301300, -98.27432251, -82.92152405, 38.39618301, -0.62769449, -0.39279646, -0.59546459, -0.31166112, 1.68947029, 0.24042884, 0.93351299, 0.00000000, 0.00000000, 0.00000000, 0.00000000
1, 1.0075, 364, -2.62825298, -0.11358775, -0.87084484, 30.70771408, -5.50512695, -168.55142212, -24.96346092, 46.38994217, -45.89301300, -98.83051300, -83.33623505, 39.03372574, -0.62673569, -0.39022094, -0.59718901, -0.31352100, 1.63500929, 0.22825605, 0.88865912, 0.00000000, 0.00000000, 0.00000000, 0.00000000
1, 1.0100, 365, -2.57526898, -0.11242928, -0.83134359, 31.45157242, -10.06046391, -177.91766357, -24.96346092, 46.38994217, -45.89301300, -99.60214996, -83.77124023, 39.88940048, -0.62565047, -0.38753864, -0.59905165, -0.31545582, 1.58117247, 0.21940809, 0.84944177, 0.00000000, 0.00000000, 0.00000000, 0.00000000
1, 1.0125, 366, -2.52532530, -0.11633427, -0.79985654, 32.55855942, -15.09380722, -187.50138855, -25.63577843, 44.43145370, -45.13300323, -100.65840912, -84.22605896, 41.03329468, -0.62443262, -0.38474432, -0.60106182, -0.31745929, 1.53039885, 0.21520276, 0.81846356, 0.00000000, 0.00000000, 0.00000000, 0.00000000
1, 1.0150, 367, -2.47234559, -0.12787989, -0.77472472, 34.59891129, -19.91730499, -196.66566467, -25.63577843, 44.43145370, -45.13300323, -102.07489014, -84.69831848, 42.54331207, -0.62309378, -0.38182837, -0.60321778, -0.31951454, 1.47662365, 0.21823591, 0.79405391, 0.00000000, 0.00000000, 0.00000000, 0.00000000
1, 1.0175, 368, -2.41724133, -0.13748616, -0.76423126, 37.14322662, -24.80753708, -205.69264221, -25.63577843, 44.43145370, -45.13300323, -103.97407532, -85.18544769, 44.54313660, -0.62163639, -0.37878546, -0.60552102, -0.32161185, 1.42077005, 0.21893436, 0.78449959, 0.00000000, 0.00000000, 0.00000000, 0.00000000
1, 1.0200, 369, -2.35102916, -0.15255494, -0.77229595, 40.47928238, -29.82775879, -214.79388428, -25.63577843, 44.43145370, -45.13300323, -106.54402924, -85.68400574, 47.22271729, -0.62006259, -0.37560388, -0.60797757, -0.32373989, 1.35386527, 0.22469768, 0.79372609, 0.00000000, 0.00000000, 0.00000000, 0.00000000
1, 1.0225, 370, -2.28022194, -0.17191760, -0.78813428, 44.96987152, -35.26255035, -223.27505493, -25.63577843, 44.43145370, -45.13300323, -110.07762909, -86.18651581, 50.87794113, -0.61837858, -0.37227839, -0.61059409, -0.32587072, 1.28243637, 0.23438612, 0.81096703, 0.00000000, 0.00000000, 0.00000000, 0.00000000
1, 1.0250, 371, -2.21330714, -0.18954808, -0.80601549, 50.54100418, -40.83782578, -230.99235535, -27.03887749, 43.52528381, -44.78222656, -115.01902008, -86.68114471, 55.95544052, -0.61659437, -0.36880478, -0.61337203, -0.32797757, 1.21498466, 0.24200952, 0.83050001, 0.00000000, 0.00000000, 0.00000000, 0.00000000
1, 1.0275, 372, -2.15283656, -0.20288928, -0.82503980, 56.68242645, -45.78898239, -238.42326355, -27.03887749, 43.52528381, -44.78222656, -122.03204346, -87.15100861, 63.12048340, -0.61472255, -0.36517397, -0.61630279, -0.33005300, 1.15407252, 0.24502541, 0.85140216, 0.00000000, 0.00000000, 0.00000000, 0.00000000
1, 1.0300, 373, -2.09865427, -0.22419342, -0.84808338, 62.74583817, -49.98140335, -245.70376587, -27.03887749, 43.52528381, -44.78222656, -132.07597351, -87.56766510, 73.33203125, -0.61277145, -0.36138299, -0.61937255, -0.33210105, 1.09955525, 0.25569516, 0.87652338, 0.00000000, 0.00000000, 0.00000000, 0.00000000
1, 1.0325, 374, -2.05599928, -0.24877600, -0.87775230, 68.22853851, -53.48791122, -252.90310669, -27.03887749, 43.52528381, -44.78222656, -146.18026733, -87.88264465, 87.61786652, -0.61074388, -0.35743499, -0.62256533, -0.33413270, 1.05668235, 0.26933971, 0.90844715, 0.00000000, 0.00000000, 0.00000000, 0.00000000
1, 1.0350, 375, -2.02780628, -0.27763519, -0.92260951, 73.78096771, -56.78164291, -260.37957764, -27.03887749, 43.52528381, -44.78222656, -164.29666138, -88.02843475, 105.93027496, -0.60863888, -0.35332283, -0.62587875, -0.33615109, 1.02839828, 0.28694752, 0.95573187, 0.00000000, 0.00000000, 0.00000000, 0.00000000
1, 1.0375, 376, -2.01408505, -0.31012693, -0.98472255, 79.75956726, -59.57570267, -268.55004883, -27.56503868, 40.45600510, -44.69453430, 176.34921265, -87.94941711, 125.49574280, -0.60645890, -0.34902689, -0.62931257, -0.33816209, 1.01472569, 0.30784860, 1.02043092, 0.00000000, 0.00000000, 0.00000000, 0.00000000
1, 1.0400, 377, -2.00976729, -0.35050333, -1.04009390, 86.16315460, -61.79425812, -277.83316040, -27.56503868, 40.45600510, -44.69453430, 159.65298462, -87.65076447, 142.41952515, -0.60420412, -0.34452102, -0.63286817, -0.34017742, 1.01060796, 0.33625054, 1.07852769, 0.00000000, 0.00000000, 0.00000000, 0.00000000
1, 1.0425, 378, -2.00818396, -0.39934960, -1.08862412, 93.20043945, -62.60443115, -288.21826172, -27.56503868, 40.45600510, -44.69453430, 147.12858582, -87.18515778, 155.18975830, -0.60188746, -0.33976990, -0.63653690, -0.34221143, 1.00939083, 0.37269562, 1.12986994, 0.00000000, 0.00000000, 0.00000000, 0.00000000
1, 1.0450, 379, -2.00991631, -0.44948983, -1.15097570, 100.86533356, -61.18418503, -299.13473511, -27.56503868, 40.45600510, -44.69453430, 138.12228394, -86.60779572, 164.46160889, -0.59953743, -0.33473986, -0.64029497, -0.34427670, 1.01166844, 0.40999073, 1.19503260, 0.00000000, 0.00000000, 0.00000000, 0.00000000
1, 1.0475, 380, -2.01742601, -0.49060905, -1.22710788, 109.16945648, -58.98199463, -310.95190430, -27.56503868, 40.45600510, -44.69453430, 131.56823730, -85.95148468, 171.30281067, -0.59715933, -0.32940248, -0.64414012, -0.34637895, 1.01992166, 0.43778759, 1.27395296, 0.00000000, 0.00000000, 0.00000000, 0.00000000
